Set,AnimIndex,AccelerationX,AccelerationY,AccelerationZ,GyroscopeX,GyroscopeY,GyroscopeZ,OrientationX_sin,OrientationX_cos,OrientationY_sin,OrientationY_cos,OrientationZ_sin,OrientationZ_cos
Walk,0,0.08105734206800873,0.13354963693281857,-0.10594071951420385,-0.04505918318565391,0.1709385049203223,-0.030176134577616417,0.21327951198608155,0.8810356970320252,1.0100034133404532,-0.05045529411989001,0.15711274880552822,0.9486441857111884
Walk,0,-4.7976851849071664,15.868141752484808,69.19813168491993,1.0508773660640987,-0.8032085503805632,0.6902676003740779,-0.11435092376347174,1.017012244003996,0.9129210048005119,0.04633097887399304,0.34382840461223235,1.1076890491381717
Walk,0,4.134215206741957,-8.983635784651492,-53.99952813581546,-0.0971461987533921,-0.014427944974337085,0.13618366045187263,0.10149291408206071,1.1010076062725367,0.9481054756592987,0.1307125895828357,0.3841291809916692,0.913944075790408
Walk,0,3.221517274401108,-10.694735134210298,-53.80069126121677,0.18853632278827936,0.11211669388825918,0.16181845550473928,-0.16087840250841345,1.06632235459265,1.072008535478079,-0.0026615751172454592,0.41393480171895897,0.8246530045838505
Walk,0,2.4244883209800974,-15.109317253957926,-57.16193620041516,-0.008862655711479345,-0.12357340884232444,-0.011527697638098888,-0.07200766604016381,1.0467365963262905,0.992152255620814,0.07381275558669981,0.34112458128994394,0.9395983977981542
Walk,0,0.10804819643011487,-0.01680440035945375,0.08564606549040671,0.10149794226164213,-0.03108018124532412,-0.08774457342322012,-0.01602355317297663,0.9142598155436427,1.1621236491416234,-0.08914584074364337,0.4249270838063743,0.844481814972844
Walk,0,11.956357072719006,-13.276675939901688,-53.47775420482248,-0.0854137978837267,0.23641781715778445,-0.2460461310603929,-0.12819198730296605,1.084561068265193,0.9756996353171508,0.0405633672196135,0.36242583712475146,0.9315458894437495
Walk,0,17.496947094904925,-27.54788716717323,-45.72703460314347,0.0005729526214272181,-0.029765623157501198,0.0657253117162889,-0.1384288323839625,1.072671613160703,0.7912554496834746,0.23548672043711422,0.2597735877808917,0.8033366623090681
Walk,0,16.097955522659714,-37.41550164829775,-32.147808278128295,-0.1811045906118587,-0.07028431631722697,-0.005012292548878313,-0.13774139116092549,0.7320766386272102,1.0748838644658925,0.25557961101390564,0.19986194354017606,0.9613531130156402
Walk,0,18.793087328506505,-57.49330159016105,-33.91643139732954,0.021841937757092134,0.11052311164126866,0.09210384214508736,-0.1861199476168634,0.9231101331716914,0.9805348917521588,0.05575820137492027,0.2911466407042336,0.9632063518138871
Walk,0,20.031673157457888,-73.09563827795758,-24.99848338687972,-0.11484650080319471,0.26545595233503044,-0.10489564821262863,-0.056667884562121296,0.9991137558978832,0.9911534909090629,0.09901650198501329,0.2699654504123578,0.9132502672312174
Walk,0,14.674673322880365,-59.19480104335862,-11.890471957210977,0.155007134576591,-0.16443446620916802,0.08725473411707611,-0.15705609501597856,1.1469156998404573,1.006131821750275,0.16281079010118993,0.27978193943602414,0.9434767498958944
Walk,0,16.388074740295004,-65.08818922371013,-10.043046718380761,-0.047071732798583794,-0.09183943590211216,0.06631983514890527,-0.04050336249874067,1.0183152196084608,1.1263476591269033,0.16339624294445348,0.23259826608103204,0.7861620001478842
Walk,0,16.06990729611571,-73.68335147422663,-13.150730964974866,0.005133662596696862,-0.03529661093621448,-0.15113204386128054,-0.09849082406493913,0.8909872082092667,1.0609858863368278,0.017999513119406237,0.15603968702336,0.9186724303950599
Walk,0,10.277989677570487,-52.50207117214438,-15.155311597335574,0.034355641442234956,0.05204067497453085,0.06409875344870064,-0.23673093625558073,1.094305796312249,1.0390246580748246,-0.03012631996122435,0.2800464910606864,1.0811642102857928
Walk,0,10.990945475969712,-42.768120074750016,-20.60138704867388,0.06991733194637388,-0.09474981553224393,0.041659889392382896,-0.1163487373741505,1.0900297714787217,0.9063832233297371,0.03395185786265451,0.3155919046468847,1.1160160081049193
Walk,0,12.888130045909833,-38.00630931027312,-30.25588032496403,0.14518781072903214,0.0749034156134763,0.0037941653659769436,-0.042936173570991686,1.0585018010890455,0.9427143592450172,0.08754676245447579,0.1822128537143326,0.9841841588231749
Walk,0,14.284587242398473,-25.995588155459984,-36.69113721782819,-0.14625104630701893,-0.14164643433793986,-0.11401920669829646,0.15478554064853295,1.0994015938934782,1.0377153235824454,0.022521696230663517,0.3689206934989604,0.9380994049130453
Walk,0,12.930181105940896,-15.281077894123582,-39.984373762337675,-0.09773670112665989,0.04809224930108631,0.24833095250570192,0.11221634189676555,0.9954499490044756,0.9633437702716791,-0.09281890161775863,0.15321419410386783,0.9687107139050154
Walk,0,14.28893887507851,-12.487515323069408,-52.1706278790952,-0.06415808572338681,0.0072808686584210055,0.009159863797420752,0.024257209404021388,0.9641797071391321,0.9400877277794448,-0.023655662868425704,0.21376604485858322,0.9205285829177156
Walk,0,10.101557203116661,-9.767915021357453,-45.311035432294766,-0.09216719679888014,0.06398247443227739,0.17643307300686845,0.06321247519712425,1.162638029347975,1.195905225503069,-0.17522976041602076,0.10729658354921368,1.0090673100649283
Walk,0,8.013264289287756,-12.419994769301502,-55.11429385849729,0.017477324722241405,-0.015077276679349669,-0.18517214473798463,-0.057508538106193684,1.0718794238593032,0.8937965228022734,-0.03492338210978925,0.15652396639088856,1.041233336911094
Walk,0,5.037035883789646,-11.367088457549704,-53.92108197290619,0.11729038411949333,0.010653148456709886,-0.06437030588552393,0.04390656635549937,1.1030930239702021,1.07923926232845,0.017627781480448065,0.1297634451340445,1.0308348015332909
Walk,0,2.6731640457486927,-7.558024042232022,-49.15647672513672,-0.05921469374235608,0.14724352315744835,-0.008412916557621499,0.08053840205937984,1.108805315634727,0.9928211726275279,0.018703080930774232,0.30325196909805874,1.0643038940016387
Walk,0,-1.4334705701050132,-9.453294292699685,-49.70138294525873,-0.015525384719832766,0.025946640651046668,0.10147945490726527,-0.054427224751542644,1.0064613132747506,1.1878345814108142,-0.15533047253093177,0.2356976822755613,0.7519412319033913
Walk,0,-6.458838214698318,-27.948847257777526,-61.914793669962684,0.052008268087373306,-0.08370749734563016,0.05163808249694297,0.017706503814801614,0.9041912304567961,0.8898093154118056,-0.006778263870682588,0.3376003065633428,1.060318817812756
Walk,0,-8.559068405093228,-35.4325968430267,-50.8041666387484,-0.09320268306507085,-0.09278536900547299,-0.05340003591304299,0.05362865930917495,0.9066472636653505,0.9790836461073303,-0.19709126612320288,0.2543267980268803,0.950708265757456
Walk,0,-11.613446118997684,-44.563647791693356,-45.82560589059241,0.11593989290297198,-0.05777920796016034,-0.014320544337777939,0.0070553772984603864,0.9928313015200759,1.02420358129951,-0.14266483251710882,0.2064100721046827,0.8820267722804512
Walk,0,-15.013610085604101,-61.38237815230985,-41.395990662162994,-0.09037200963818827,-0.19688766621312295,-0.040991905911173916,0.03833989340988641,1.0057260070168836,0.9673812757913066,-0.026485944452202786,0.22358785578167611,1.1197138220701648
Walk,0,-13.928717110573892,-60.855865390433216,-25.57012404174774,-0.04646497187787673,-0.185888996503592,-0.21600948192831612,-0.03773770804041722,1.0702419974775255,0.9603289442318511,-0.07660492875918566,0.25632590862401977,1.0902751002104172
Walk,0,-0.06301112862354045,-0.057621033663684984,0.1020702038257667,-0.04369312609197674,0.11472084662786573,-0.036995667742598125,-0.06929348171210228,1.0559817301911338,1.121996042136143,-0.19068800264304103,0.32244037038195916,0.9770280748035998
Walk,0,12.713028551797338,57.87456240443205,18.858286684585327,-0.35768215029659695,-1.6546738134408392,0.363673273741154,-0.1217263663807125,0.8175041018270821,1.1066946523841386,0.01503371497629942,0.2815447980313384,0.8459380745925642
Walk,0,-0.0284144624084561,0.11669630448761137,-0.08917330953386524,0.00810472184137683,0.030027632807998403,-0.1466700477334362,-0.11902500523888948,1.0114375897988848,0.8338703971503825,-0.12659778157479812,0.21562489459511994,0.8394032953411315
Walk,0,-6.293520139971928,-76.25464058968716,-29.402326370792302,0.0037276399283636603,0.07391063944950271,0.037639829313132735,0.06251285301347478,0.9914050790942887,1.156620042314995,-0.1258597213505078,0.2577768074373349,0.8976329445313224
Walk,0,-2.342739963276749,-36.20975999142569,-15.41513022318062,0.10189306085272404,-0.03418659098679215,0.03922382104552409,0.12039543031059029,0.9900340989394718,0.936451492960457,-0.052988008754285915,0.27168002859124357,0.8473135459507124
Walk,1,-129.30868983792215,1372.105702054468,1386.0110681687393,-0.0915734874041618,0.04325771268537596,0.019627797032647918,0.21604910833994187,1.0126137960449146,0.9370973740923209,0.10917236771228986,0.2827019526344028,0.9680397277905913
Walk,1,79.26732587339193,-29.422101790987497,74.99162940229819,-0.048764733376634777,-0.048268434803061304,-0.022983155354475333,0.24584494756707134,0.8450484594338854,1.1842569981358435,-0.1385361549685428,0.3022410435212027,0.9817059034299582
Walk,1,91.02148620369547,-26.34887920060206,80.46987837988354,-0.128907941801185,0.014873778026778499,0.1133128191351745,0.09937667625842464,0.9021294206134859,0.8832436772123173,-0.31059163890593355,0.35810396012045964,0.8090797618513643
Walk,1,76.23552305757143,-9.407347058706168,60.65824655141403,-0.13363012740299052,0.06379825939201339,-0.06815618432249158,0.09891954330627856,1.0514613894551852,1.0079058159417398,-0.4502154253209871,0.44038456463732456,1.0276596901483366
Walk,1,84.68211143980922,3.8513559743509753,62.975084823503714,-0.10750594190946043,-0.07883737518460501,-0.0456981971203566,0.1109741662985253,0.8619492446653173,0.7737763821771804,-0.47390436223605015,0.5174945970373909,1.0070062706100555
Walk,1,87.48705214406108,16.936555005555643,106.31841182809261,0.15722431268291595,0.12741793206453988,0.029006050166403494,-0.04897540971381235,1.1699198744148076,0.8842572085549978,-0.5577577632178508,0.6683721538059433,0.7836670037991416
Walk,1,36.355327237358615,-0.7317316530071798,126.85620257185136,-0.08581046497529522,-0.07455699446109357,0.04660822329649856,-0.2002289915879868,0.8936594197573515,0.8062206196417416,-0.5812771950159292,0.5032253382805796,0.7618440350956063
Walk,1,4.2934033372280425,-29.534356492016165,120.68926784771199,-0.155933793991069,-0.12346253204932481,0.09273941437094702,-0.1860340555820969,1.055401570082453,1.00486708135708,-0.5426364835982233,0.5587636314075461,0.7862505133694263
Walk,1,-2.9779320437707337,-49.28248848941068,144.44001387314023,0.08575071379792225,0.11362979289853883,-0.10358186998835264,-0.0030569725440994927,0.9874561495854945,0.9527308871114764,-0.37550619230168963,0.45218610950541044,0.7876349161562605
Walk,1,-0.03906568306038105,-0.04454750420828285,-0.01595550397257116,-0.10187961204794256,-0.08821735568605772,-0.10828619326808915,-0.041349473481679375,1.0676521747202907,0.9475536958934621,-0.15683771455867318,0.42901633772813014,0.9823541911946947
Walk,1,-33.676884753498236,-37.000941946388885,142.75278092998087,-0.08925843737130629,0.06489843170248248,-0.03698732036102905,-0.023915390576365055,0.9529502573171644,0.8593471651233949,-0.1276263709576569,0.23522959293762322,0.9491580053768942
Walk,1,-35.56255765635224,-3.3114314296343172,137.66510470262529,-0.024346192029991796,-0.07023183338210853,0.05130435417071453,0.05069609221802042,0.7928131494255927,0.8464280342048146,-0.07142459083790585,0.4210159992019641,0.9740869276532501
Walk,1,-32.37615245970489,34.05996455686749,107.5496119420225,0.16398154663857728,-0.015567265003640625,-0.05303448335853492,-0.3203405153236076,0.7951339314298033,0.9413261425597734,-0.11865034915884393,0.25009096037382894,0.9412405565848274
Walk,1,-34.77832206644234,51.016500741892095,97.18481757191209,-0.1342104728346063,-0.013075430321028798,0.09145502754426607,-0.04425797987807932,0.9331978346963545,1.0626515618485433,0.029923474777266076,0.4474598689402576,0.6977627596632375
Walk,1,-27.201414775684665,56.237768925243934,111.67868295240577,0.04013219282044941,-0.07255663773064794,0.20231702536663454,-0.10110344791365379,1.1059559832389372,1.0443164397469873,0.12399809756598099,0.3962952735021751,0.8591086210205727
Walk,1,9.4091469832449,-26.28471264797336,-93.93472921195908,1.4549453916076793,-0.29588765426264013,-0.9775856141189218,-0.0664476356702035,0.8847906883951285,0.9313109503032584,0.042876802492368235,0.46204136581775335,0.9730897264840278
Walk,1,-11.726295563445884,-2.9121999249005825,81.2433782713277,-0.0450881127189423,0.08358853069301869,-0.004338672872727706,0.14831503075760388,1.0788241099306273,1.0136273883883673,0.16401861735403817,0.5935289204922983,1.011427661733186
Walk,1,-0.12855610125109382,-0.12781906721254085,0.12990699921305132,-0.07003925856173465,0.023408085607408688,0.0009468724265697397,-0.03793038037249198,0.918395823031845,0.9945989867610796,0.09025560422848566,0.532883290216185,0.9217535791992526
Walk,1,-45.36397859179695,-19.313966925791412,97.54321308013859,0.0011576485170354644,0.07162494684201619,0.09936137229478607,0.20113608193430577,1.1866660253166725,1.0167776331166754,0.15941845641441899,0.4869053261336474,0.9724284897652336
Walk,1,-26.196410781812638,-13.488427389419396,82.92059138493423,-0.06442441866535607,-0.18135722331274012,-0.04643245506749784,0.1517942434043314,0.9255418722771923,0.9169790231215111,0.23412786245470846,0.445144707459681,0.8807554531750061
Walk,1,26.716904552623532,11.577801071996422,-95.29147995729801,-1.4734627046387487,-1.860229654533954,-1.2205048133312522,0.33250638057392395,0.9421338458901113,0.7979793831951039,0.29836047099824187,0.3078571117692739,0.8931727423031213
Walk,1,0.11908810272961817,-0.12623467043090372,0.03054158931592976,-0.0302634123784151,-0.06875454954000994,0.1241877869869032,0.14593153810486292,0.7344976455214216,0.6895362981540966,0.3514136977213667,0.3633227954052745,0.8748382563799819
Walk,1,-27.4301476342734,-1.4368201054124023,90.31617062011344,-0.06508821149237003,0.04900578449352868,0.03252339164529811,0.20677220394038107,0.9423335827830173,0.9870295836204064,0.38005649494446564,0.38292306153614597,1.0943173176306822
Walk,1,-18.11118324106048,7.971817511341412,96.6927956791098,-0.18523276428376922,0.09725658678991594,0.08661530409037953,0.20861108343827442,1.0087914492188732,0.9084070443310654,0.35889145653658977,0.3149678865787394,1.0629581357725668
Walk,1,5.84873105245833,-9.737937975573784,-78.65424049713714,-0.47292927514773697,-0.3699210242979335,-0.6121734746548915,0.36480894029157335,0.8437110445006295,0.9310924315110246,0.2506093629209259,0.2810046688784942,0.9509484280232293
Walk,1,0.10739136781597332,-0.0350807983123355,-0.011329118812199961,-0.026653851236291617,0.028709550294204585,0.03153731791318364,0.10386510313921357,1.0226884125230702,0.9762808613979094,0.23716164243780818,0.3060905017485145,0.916404984441703
Walk,1,-8.16854641821189,-8.910059193877666,-94.86780637678164,-0.49580962314726884,0.2926508880088675,0.1329775563533231,0.16033963586875322,0.9805816379635174,0.9191635115028772,0.3867985618602441,0.20649954881124452,1.0258118452695526
Walk,1,17.20499905384984,15.856290079341354,80.9086280645518,0.011293977508008785,0.2123011702466649,-0.02908030854049914,0.09710516683154198,0.9676390504186317,0.9790014762594144,0.45781009644100074,0.18219783337387102,0.9063181805523188
Walk,1,25.95915311622188,33.00240966568669,79.69192754939485,0.04601123947429858,-0.2060754746931638,-0.03989911525863551,0.18604364428090692,0.9938574632234639,0.8957978941539727,0.2820177970253359,0.37735543567508956,0.9772930814998089
Walk,1,40.77624950851173,57.79919582015155,101.4934817983611,0.008208107665537138,0.10852160200794513,0.025213781465771926,-0.10592213274467496,1.1646874941754708,1.0068768011169913,0.20206215768389263,0.29626758902521083,0.8240968644998771
Walk,1,46.49942849825017,56.49008514527353,109.38539561325214,0.20624855942365913,-0.19310554922069073,-0.035978197028656976,0.02239567252563701,0.972885057586738,1.101053457627904,0.22330300360205324,0.2394982086242355,1.1068616868517354
Walk,1,31.855438218343593,37.607716478583754,95.99713536009293,-0.15752629189016776,0.07166313155402103,-0.01396768566657228,-0.005620247332788965,0.9163941867540449,0.7980294391598018,0.18184094977522428,0.35796550445021724,0.828654185400767
Walk,1,7.187781530974449,14.860689272100135,103.09572631564575,-0.19029281569529638,0.05417285323259641,-0.04440047170310222,-0.07080352836328396,1.0765374626074093,1.0164913008459138,0.2809258303363348,0.42054756780046765,0.8412644287585946
Walk,1,-17.311169568211913,-11.268503452575715,81.51836268975242,-0.012869797881248955,0.09413493560624933,0.08936946809981001,0.1312490793857576,1.0187205308149376,0.8629111221515582,0.4309759297568942,0.2214392877772769,0.8185191311193675
Walk,1,-0.09553860701959965,-0.034244466573714105,-0.09431419535915657,-0.17242194897590302,-0.04257027391698046,0.009498291386136046,0.15957536544451426,1.0241160697980776,0.8317165066584845,0.30410986277667024,0.29693280914033304,0.8841633174702661
Walk,1,42.44619633750083,32.00100928765571,-96.90511587805398,-1.0479985615616931,-5.528050355811263,-0.802442404156913,0.1455963856693417,0.878566269883413,0.9898474115910775,0.41036458367833845,0.3410351057008894,0.8874366976828334
Walk,1,-37.43223727177331,-25.39015492284063,72.78597837467984,-0.0246596592289673,-0.08291076372746387,-0.05588055780786425,0.02939019464332951,1.133379389686108,0.8438376885506647,0.665180301073983,0.37872716588547956,0.8055444161571989
Walk,1,-36.57536129937267,-20.600236941073504,68.33060485564167,0.050069314077056976,0.3151385954419046,-0.10559911724913146,0.06736718049707634,0.826921860790094,0.5788792829684377,0.541810148340795,0.23250357005125127,1.0521710982802233
Walk,1,-41.204952754482264,-7.473251811248017,87.29752535440612,-0.0819223420574304,0.10169709404195924,0.09073268596842603,0.3427836531531216,0.9031995142873983,0.9358704332536345,0.7451205838056143,0.3463626835889317,0.8583591685664931
Walk,1,-0.10424172031800504,0.003469629814425815,0.20173048650752945,-0.007550225071470825,0.151572538112677,-0.23122107233522496,0.05853358196195712,0.9938144820891268,0.5906747548783723,0.757888266831384,0.3825758358533027,0.9508466907173803
Walk,1,0.1414919292179695,-0.10665193066636183,0.0732560922720693,0.13297182414751815,0.014384775064241871,0.10218947104496295,0.2013554780786738,0.8157722293657486,0.8022120638542907,0.8253756829867247,0.43507904078844695,0.8983239629275683
Walk,1,40.76137083818446,-50.51203053289599,143.10113247757783,0.04968024489763281,0.09344428997506798,-0.027588196632822724,0.3111090464947902,1.0351528884448753,1.0245661113490054,0.6537757274443253,0.18394711561636595,0.8745518440474942
Walk,2,108.55571901102806,55.61275676019703,-4613.750306941122,-0.007539963081829986,0.01248312561252955,-0.053172882264784005,0.1750892996619235,1.141452526887405,1.0164012390376598,-0.09301966513139934,-0.1526818125402922,1.0866932263279305
Walk,2,-4.205838708398711,-8.936598571498658,-109.5085390786002,0.10590860492902805,0.07695970640856924,0.012902048223627715,0.22876014396820712,0.9173968679901183,1.0306522316566984,0.10437620170785594,-0.09044942520619018,0.9496657708810243
Walk,2,-1.3799569442896285,-1.9294742623632102,-107.78370473241868,0.11748135359943387,0.12040842568075534,-0.044069625723335136,-0.06578498896002127,0.8404137202889618,1.062750853909099,0.03588543954156931,-0.14011678941312045,1.021519924026567
Walk,2,2.7871830782365192,8.879718140850285,-119.49283234804491,-0.04965223985837527,0.03778601735810963,-0.012969215167439567,0.06195906490018176,0.9794622906928688,0.9383166122468565,0.009796714041016855,-0.22432993183565256,0.989572900587492
Walk,2,10.329679679722172,25.576103084552624,-119.64752596574434,-0.162464637769193,-0.08799612456070488,-0.06990060297655372,0.16477482467073332,0.9047899886853086,1.0406781263451448,-0.0806759396778999,-0.33259065563366663,1.1286093929814571
Walk,2,19.67492009120803,37.874534878834545,-127.0587284912449,-0.074584058133749,-0.14574400895036546,0.0059864100495915775,-0.0426783422308345,1.194620797377143,1.058951728120493,-0.09049410943450416,-0.1893439070473093,1.0644925328401118
Walk,2,23.422635670630594,30.022712724897026,-125.67833620094592,-0.10825331452374454,0.035042925690925306,-0.04232258474117422,-0.15399878320565705,0.7665755587957126,0.8147510959382276,-0.08807072511621514,-0.09523592824165622,0.964766453289716
Walk,2,21.89762299848138,21.637534878057767,-107.2804428034997,-0.04947729194493541,-0.06327204475506014,-0.07131178973169179,-0.051829696357437484,1.1758952961220515,0.9055542036919428,0.06113255090381609,0.0020940404932999757,0.8443353630448233
Walk,2,0.03076053723913213,-0.09732324350762805,0.004043893571727831,0.09080134812749198,-0.0014399186356668459,-0.15108888564595235,-0.04851444026061172,1.2140711746486408,1.091157118576974,0.05178632561866606,-0.11483824637819086,1.0722359954834615
Walk,2,-35.63217713443301,-10.437842113101823,130.63914912303972,-0.354893390353135,-0.5403452838934919,0.23683543166883197,0.18894835930588993,0.8822835398838018,0.9280652308203341,0.07431325347873129,-0.12298832072711458,0.7847763727219292
Walk,2,30.888259106940733,-2.307191311772306,-103.19541954107778,0.2818816065918956,0.06452009550214541,-0.1798534940787676,-0.1893988665172724,1.1221101269634803,0.9038699794682463,-0.023875400544636632,-0.3072052047671514,0.8747971764167649
Walk,2,30.4304664799021,-10.40508801228384,-100.95859502265495,-0.07284849882000968,0.0003142287386068448,0.07482197980338252,-0.03237966796127966,0.7387576784239688,1.1294643568381173,0.09220851646304014,-0.1459500182071859,0.9548795691277404
Walk,2,33.4766975401642,-17.797453326823558,-117.84342099809533,-0.07256985515810885,-0.01633084254708708,-0.014272138625672807,0.04651499372572953,1.0087251043016867,0.7936480824168531,-0.002654917311045543,-0.1650970800707268,1.0498343791685907
Walk,2,26.253809833501965,-17.948241531091853,-99.83150780071666,0.04134380186283404,-0.009405767430877688,0.1857193102935188,-0.10356296623457807,0.9124117010340331,0.9198533179247105,-0.06853729644425094,-0.2421986516790836,0.9141970397992456
Walk,2,24.99691240319846,-20.26775197900927,-102.25357165516601,0.04336813686846249,0.08289571384705798,0.08384933210252538,-0.023155230403467397,0.9186270575810701,1.0664378052892,0.06302364359036597,-0.26051095452261697,0.9367716365883209
Walk,2,28.692459190748583,-23.573205972610737,-120.67236477069595,-0.013128913417780663,-0.13700709924499307,0.12353715263862687,0.04828276493557674,0.9826889503879216,1.005196715694616,0.3354101039597718,-0.3219113480890249,0.9756303782144683
Walk,2,30.57470394770269,-17.893851878601048,-117.11488540464605,0.11767956057071383,0.06691595168849172,0.009107949232274091,0.15319746195068565,0.9037288402321101,0.7687287625927467,0.04494898026598454,-0.33094555767402045,1.1767590856149337
Walk,2,31.384974805829373,-7.541818557006516,-104.37117863553756,0.06309286641471377,0.16839222099478943,0.19462638044798145,-0.04585418344961954,1.1018858553078639,1.0309587181682025,0.10938738785948164,-0.15470743396980272,0.9071006993592903
Walk,2,41.00885868624358,2.0014749396151394,-119.80020517545935,0.03237519557702418,0.04857144821202957,-0.042280385054075414,-0.03299597660486591,0.9938745147654119,0.9521960672682115,0.30619414600757944,-0.03575784948816864,1.024649112652792
Walk,2,-0.11150695259068621,-0.05571228217675474,0.06865794694479135,0.057234914247130966,-0.019122002538929716,-0.006292554347275928,-0.029444854134931704,1.1495195989428142,0.883882192013822,0.33903793239229135,-0.06227720299506896,0.9663484500104473
Walk,2,47.231956076532775,18.043757982634254,-128.52830408298195,-0.01347700960124712,-0.06817607360063715,0.0008389245252879041,0.01981400793474401,0.9891652566239002,1.0533708469030254,-0.004195761489866584,-0.017381434780340835,0.8599388053496402
Walk,2,43.26927324160188,15.837790650024441,-137.38442455684398,0.0700040180765899,0.020799686733550694,0.03573028787902717,-0.028016234858576166,0.9031480998075393,1.0005547885586783,0.33699209551934256,-0.09047138438745156,1.0753624974020908
Walk,2,33.00624551907867,15.011908721949442,-120.22613858588826,0.013659899614634905,-0.03664323378361626,-0.06357615050272715,0.19541207090968793,1.0597963818739915,0.8209553559196112,0.12966074386677784,-0.03471851058897123,1.1366598451585186
Walk,2,34.07992279720079,12.2705452535693,-117.62772184868808,0.07760701137972834,-0.09873478397786649,-0.08438968398291162,-0.06696374764792892,1.083079543220127,0.8732029299656338,0.32505271416975434,-0.0862003305675221,0.9696504124943652
Walk,2,46.32731550959123,4.676149924823803,-140.37438550707077,0.17203021810896213,0.08068810389971989,0.052608928247664305,0.009965824667259551,0.8422556241955544,1.0046140806233834,0.3187772221223859,-0.20699802237876397,0.945206779315547
Walk,2,37.625892880840276,-5.6335865943968155,-112.06520595980443,0.03139407582664086,0.11160864173535916,0.18935523495915382,0.20778652464906777,1.0940368167745769,0.9458700814886423,0.19613846719651418,0.02746174641684257,1.0662019103823115
Walk,2,34.97321392038902,-13.340255899163786,-106.66201042592162,0.14818319502072075,0.08776978219327641,0.06846123923315307,-0.031244167477529478,1.1477839480723138,0.9044662090013038,0.460519867262053,-0.2209387631964292,1.0066133154373376
Walk,2,0.148815347859123,-0.04511749944513213,0.05717657503081998,-0.06383580502919205,-0.07179989418866436,0.23348822258870428,0.08219772169128817,0.9347170546446963,0.9298901464385374,0.5020064010724848,-0.1333993119317758,0.966929672787947
Walk,2,-46.34048429712392,24.82208857250654,116.51550401154309,0.0007850876856627109,-1.543316673357602,0.24673614012323739,0.0702921284154359,0.8236822386413222,0.8454255964310246,0.3484561764231871,-0.09830663370099728,1.0376404179385221
Walk,2,-0.0060098865718002945,0.019712743444264928,-0.09328651963335624,0.006945217364115114,-0.020470611537134104,-0.07234889991328623,-0.20890082578066377,0.9727472299480234,0.7923085610484226,0.34836801934550377,-0.17283048452361666,0.8724345133682925
Walk,2,-46.14763367776753,18.590454537526075,103.86192633086642,0.17712788144656832,-1.4182910727392137,0.18481373712427784,0.15848649745756382,0.869734233007881,0.876758022451103,0.46832171543291595,-0.20058433836623518,1.059545271567191
Walk,2,0.22287336240315023,-0.1319950237542583,-0.1507682282602464,0.07190470472034309,-0.023969443337863754,0.09486064869823561,-0.008611386324262622,0.9779840820899587,0.8575440107384039,0.46287697410671774,-0.05556615174803407,1.0351264986120403
Walk,3,-936.5830401870592,-217.57707726343224,3308.3696382797466,0.00610059150620315,-0.05026573497673275,-0.0043097491481780366,-0.13276650980887128,0.8447970808446035,0.7218543019365967,0.06615516035113587,0.3935949957613077,1.13310148581864
Walk,3,-3.2272293601595057,-12.414784165479125,-129.55588803263382,-0.038282544038388294,-0.12313816576034267,0.09920233191906906,-0.06570559094371134,0.9850910393936717,0.7966618536334156,0.16206759431348755,0.38383233697808117,1.053072891384049
Walk,3,-0.8751435233507927,-2.685784816934495,-112.8942665150616,-0.0292001867842364,-0.04625361548897716,-0.20206238694553058,-0.09569914104804973,0.9601824485331512,0.9463402948705072,0.279009136538807,0.2436971028834419,1.1523261752518088
Walk,3,2.520611635334877,5.4431689578597195,-117.06493444351932,-0.04252134587778035,0.13921397355808487,0.17333299039051062,0.15334416976358747,0.9554627955645355,0.9472878624780228,0.17945939719816095,0.32271871456685275,1.0086938348407037
Walk,3,10.77373244789178,17.538709397659463,-149.1696311638514,0.06565798532040248,0.022225052318376574,0.016993660183163586,0.02492601078579869,0.8892455094538222,1.0932906377204517,0.020618485380294566,0.026019087889092934,0.9413591458543565
Walk,3,13.452367758369645,17.294528637947966,-116.84284617537942,-0.03437054117196486,-0.032978020697957855,-0.022711859197405523,-0.019599336386645384,0.9565431124222614,0.9499622541094764,0.09285537836790332,0.16800043050499747,0.9369478062327493
Walk,3,14.572213995508656,15.073813569705745,-123.61781770445273,-0.07437446559146603,-0.01805995771087031,0.019136180016518605,0.03983408734293551,1.0593537743106602,1.195532068105015,0.18948701883463326,0.426981417094767,1.1233750538640979
Walk,3,14.962900939966122,18.539712966505316,-144.22800237574108,-0.014720115110620319,-0.08000367094314279,-0.16485852909847135,-0.08537205986238375,0.8920245102291091,1.064374952213794,-0.08367537140867695,0.30930841734867054,0.9323675151184063
Walk,3,11.587250525097097,14.379408260712694,-130.98072966634356,-0.00960382194936944,-0.04238259623877764,0.13339712492950215,0.09699899679370474,0.883983908020459,0.8160645562046676,0.03911712379643185,0.021330819476725466,0.9303872319673859
Walk,3,11.954948919906355,4.389467378659503,-104.83018941007872,0.1515686306919815,0.12603326156188047,-0.011728768331324042,-0.06572118030836024,0.919918140706284,1.1369433158898783,0.0392355337991243,0.11519481626674852,1.0487481214878724
Walk,3,19.042813144266706,-4.423282041996662,-122.20729871847995,-0.012826575394512197,0.031962125936383846,0.017335656709168482,0.08201068079621493,0.9465766059897144,0.9617714388004479,0.14090159849414582,0.1800711966409635,0.8922129726964835
Walk,3,-0.042646304545424875,-0.11345369239237896,-0.046850946848977504,0.0824254346385977,-0.0009557665048337593,0.12230882579386237,-0.20828516891569943,0.9142751918950784,0.998307971365782,0.0647375708951648,0.2077884480298987,0.9169153646464514
Walk,3,20.05681365460751,-13.322974006814313,-113.85544450830918,0.04019418875526296,0.05292221641625765,-0.019860825151722484,-0.0553360250392852,0.7990086389980783,0.9908624976179164,0.20636438785466388,0.12971741667823708,0.8871048908318916
Walk,3,19.00098267185866,-11.275205267125244,-117.6262056326284,0.1992240769225777,0.04337386613468747,-0.001187882031834389,-0.014919760183303425,1.0903491094750801,0.6896422812874237,-0.012854794531524128,0.07031334209219547,1.0774970141823095
Walk,3,-12.025601602990035,5.050643615898949,101.72125602796345,-0.07143348980819046,0.9910047163667273,-0.6005857069730162,-0.18841110541484873,0.8313650212213776,1.0328419737955645,-0.11332025313251307,0.15313398068120893,1.1201523316177104
Walk,3,-0.01032152731774091,-0.06317438607315834,0.01971007144227112,0.015188238666350794,0.0546969487021041,0.03149085453479699,0.10631117516004607,1.0099760304510368,1.1030679132894126,-0.06541321202308092,0.13647852754766843,1.1340925989706845
Walk,3,4.219775967913904,1.633319364910967,-146.31010735099542,0.04918343095747075,-0.08535786280589841,-0.08958449058360626,0.00883647025759519,0.9899377479786894,0.9157012241535312,-0.20748914602216015,0.313880952633272,1.15401103950624
Walk,3,-1.7825306341122906,5.695729510965484,-110.23338485679217,0.1629668370362869,-0.16489185728180486,0.0857040157312182,0.21629556105222433,1.0857844004647361,0.9110696974994518,0.022869969555268918,0.3510489998672458,0.8906183425682822
Walk,3,-5.91677859071039,10.622324176548409,-113.92884061020229,0.23086054634843764,0.005901542698122292,0.06868659658877017,-0.03445169997351885,0.9202122310466321,0.8495760609303914,0.033876782570676285,0.13974357536339574,1.069296190255397
Walk,3,-13.348038046249224,19.18302636484874,-141.1003427320953,0.03214398619983799,-0.09472897924358566,-0.08117788545430274,0.2588141346068484,1.111300031069388,1.0071308253159683,0.011805175757998797,0.22902604860532605,0.9181097792529235
Walk,3,-20.46266679590247,20.194012107515693,-145.42859128753136,0.053351794993876565,0.0518744003399633,-0.05606656902262656,-0.15852040029221598,0.9772211497435551,0.9152803140648341,-0.13310760077757292,0.14752602914332524,1.0632619944673176
Walk,3,-19.729480050382744,15.554449502820876,-122.41360888833356,-0.16486127108011145,-0.03778001836900297,-0.17279100888084542,0.004011647934355954,0.9862182001092853,1.016943960863003,-0.084487489444095,0.07943186756885888,0.9329601834038732
Walk,3,-18.226123567408127,13.817293766977262,-135.37319938226528,-0.04819985265416634,0.05174087136808818,0.09826454453978818,-0.025627530189561584,1.0062480127245372,0.999850010222791,-0.07809146950502037,0.1346103445075521,0.8859752940589116
Walk,3,-13.446806724544825,7.377378880159331,-108.45141314088973,0.12573193998682694,-0.005437587578382613,-0.014546014844371428,0.20507701152136745,0.9269450093362955,1.0366380746793236,-0.22441388839089757,0.08686914690460301,0.9977987610311607
Walk,3,0.0031850195272926287,0.08191994082843579,0.020696210134984405,0.07401041702265491,0.1719222998877001,0.05632586038006182,0.02193699694656001,0.8069729249540606,1.0800389526488559,0.2588318633073197,0.065056943362087,1.1280544319074475
Walk,3,20.184498829273085,16.276757023471777,119.87577261274488,-0.27236156366216463,-0.22950410113955072,0.44990907010622927,-0.10453963536804506,1.011864349549811,1.0639407391639628,-0.14530935518570456,0.1773276484899193,0.8458996307727216
Walk,3,-18.374145048485886,-20.390086134570737,-104.34681642983877,0.12899853310534365,0.019661387599091525,0.05303031639446442,-0.05211080410117028,0.8099843117646474,1.1557221849814203,-0.05926274938995918,0.15672955022825416,0.9947656369134059
Walk,3,0.02115052846275527,0.04693172863322431,0.13151757743602224,0.16068504409228518,-0.05557479662329601,-0.1116455077510399,-0.2286327974443977,1.0303781591725187,0.9790841154086906,-0.006581433301449564,0.05817308919316312,0.9342415546595547
Walk,3,-17.443324960078705,-28.017537450549163,-120.6979406611999,0.06128231396439113,0.036375904507094915,0.012633396295011676,-0.11732566507483935,1.044266992462012,1.0500929863468265,-0.13358455293899485,0.21264733477667913,0.960907021978276
Walk,3,-8.950160005310526,-19.994150489413574,-106.19380506487704,-0.023357247903747554,0.0015670534372177092,0.11596321936703037,0.02726425333206199,1.1077323499032878,0.9131265413312866,-0.038548234987574634,0.19770574900941051,0.8285504353302513
Walk,3,-4.136952592371462,-13.72706775605091,-92.06426917899904,-0.3004058439965375,0.03800803849907937,0.08213974352766829,-0.12367385621367046,1.1290212680084983,0.875922123215884,0.042281604002002184,0.22029550554034627,1.060751346508146
Walk,4,87.317244542622,-68.39337287663862,3582.5756946821834,0.050340562726489124,0.03254801728666649,0.0029442994077946805,-0.003895492455379528,1.2012099133045389,0.9620524782700391,0.04997088214720321,0.005062523429674029,0.9229098572034746
Walk,4,-4.620778835298286,-13.103821000684281,-89.36827922386205,-0.18780983482861535,0.09130608683697072,-0.04639458990639049,0.013167936701034584,0.877803656057663,1.0990176948542572,-0.07858206969772107,0.0941687830126178,0.957286590121366
Walk,4,-3.7675488649671047,-6.9571526043924115,-83.2692033832192,-0.16635815729904002,-0.049511748852656155,0.1124664018378223,0.0024038713036902,0.9301791083347558,1.0481219212719322,-0.013656258582569209,0.051610367391062284,0.9184493475391973
Walk,4,-3.9288010881517543,0.16769400247662594,-96.97845562088057,0.01957015658688295,-0.01668104583233375,0.03996286149383532,-0.08840965921357291,0.9417137864439487,0.7848849034790258,0.05584998006572354,0.05772534166527639,0.9695376018297814
Walk,4,-0.8418905497026264,9.767331610562264,-102.72502287305593,-0.07796984610003217,0.05709399948173911,-0.11051224185631157,0.01346124575687855,1.035532949913198,1.0674640188994848,-0.05722400407702812,0.06389130387311864,0.9370971632385493
Walk,4,-0.03034485247345546,0.2233436835601398,-0.207454426205605,-0.03401389533257967,0.15178862823192493,-0.14961157193750887,0.00801572266986441,0.9527776630249067,0.8391318211613717,0.08187904667934987,0.07458108691614856,0.9390123738158005
Walk,4,-1.4312262564058442,11.185796215441007,-111.92162676420875,0.35173009700337526,-0.0021848927093750152,0.0691877644203931,-0.16040751303199818,0.9124839219186401,0.8992031698180607,-0.1294539059773908,0.17021253686125642,0.8981444000059153
Walk,4,4.239088758504086,-11.204683083872977,97.54628238344824,-0.6106458889701114,-0.22669517398266067,-0.06917051391236195,0.043166630566973854,0.7498239889539503,1.0078433079990223,-0.03464630243771975,0.02169585266123308,1.0808824618363135
Walk,4,-0.06602416814226308,-0.06350432995603353,0.2012828151927707,0.11694414743330933,0.019842839289222522,-0.045991009928928406,-0.10618814091910353,0.9472868595749636,0.9398408660431172,-0.08906108347275947,0.09706618132296807,1.0288377151758517
Walk,4,1.8534676334791784,-12.638761524223915,115.60105621173946,-0.8148984401754462,0.5373621043088749,0.6560340152585331,0.06114563936428265,1.1040461695605892,0.9715074951208085,-0.056600627208872135,-0.01520793425020851,1.062992259795547
Walk,4,-0.3919213586928548,2.9899336921219506,-94.23730724177213,0.015981688680938636,0.1922567837425046,-0.0792432690768191,-0.30674483023771343,1.037247440730671,0.9572406957808607,-0.02536804384001279,-0.12040728793577626,1.0870641522005877
Walk,4,0.03159730528185585,-0.14513240615128498,0.019232736036495408,0.0019287186092428435,0.24470238875800832,-0.2437637680563813,-0.04216874581225453,1.0465992374014934,0.9626906898974464,-0.09811330221824921,0.038822475197811554,1.0529969075042656
Walk,4,-0.1450587363066648,-0.1587661586752528,0.19240412979402163,0.045643748244272975,-0.09765008554315131,-0.03383123506933047,0.07650263803156507,1.2097720106689562,0.9234695929122069,-0.3259024623602994,-0.07663227117170918,1.003946490695905
Walk,4,-0.11083301434138365,-0.23614075000175105,0.10916932113904253,0.03460288715759596,-0.014252613115685216,-0.010275179761043191,-0.08254991651783555,0.9740818881822497,0.9028850100100634,-0.3825444897130111,0.10881961190271272,1.0780402007142245
Walk,4,0.08052503136425548,-0.0033118110849232277,-0.015191438549260567,0.05362778861945638,0.184774110178702,-0.08804141461808962,0.06479654268746649,1.1087763316348451,1.070557024615725,-0.4795213687734194,-0.23168885625304436,0.88223981959075
Walk,4,-157.29404172858293,-42.894837065495786,-632.0401491144577,0.07251275989280634,-0.20195856108747406,-0.08896946697915199,0.2216928055278181,0.8896760011057754,0.5854424143293837,-0.8004374303663349,-0.1133767151550154,1.106004642254691
Walk,4,-31.625029344842474,-14.474286748692988,-80.75358063838189,0.012022503773068028,-0.06449664575577105,-0.033342516118625,0.22597794380481118,0.9843155301939414,0.4136986661681298,-0.8351520652887143,-0.10156246516123715,0.7884144763884661
Walk,4,-34.179811511208456,-6.730502853308155,-62.814670811176256,0.026850175387301306,-0.027094128632738072,0.058968523591202894,-0.08120118236434827,1.0547742449732522,0.33322000567501153,-0.816831691560416,-0.011738239630174133,1.132335230526542
Walk,4,-37.88133485477217,-0.07188681913286969,-59.00907757603861,-0.09769816222022461,0.04611227753113473,-0.10008341912282681,-0.011978731600900738,0.8927981241349512,0.2057323081195355,-0.8907204232878831,0.045470272174783374,1.1102918443823475
Walk,4,-52.72151723729562,5.9112970723391385,-67.16129937872968,0.0539089426393414,-0.054481722380528244,-0.08521200753318856,0.20249897028050462,0.9792995436010693,0.17928262961709152,-0.8894900435955031,-0.03241064598605162,0.978197636288638
Walk,4,-57.56218115122704,10.277204904408496,-58.30141428233662,0.07633894370967412,0.09433450534653168,-0.015252079872370379,0.09340423597844251,1.0715571696467974,-0.013084312277778738,-1.1419407067847946,-0.1562521810669433,0.7968855018564249
Walk,4,0.0897188720585346,0.003825630048091031,-0.004559032019975145,-0.09830897456365723,-0.015613789452153484,0.22194632734929512,0.1184686756867416,0.8847194097251434,-0.045484737670914946,-1.104052507123192,0.013706578801556589,0.9578468120972257
Walk,4,69.034937579844,-7.878065717643173,44.856335662428634,1.002917549240128,4.097822873555871,0.2365533089064601,0.09229980569563727,1.0134942825085123,-0.15797798183622078,-0.8830305612197676,0.012806048500484328,0.9204649684864425
Walk,4,-59.100496163224804,-0.668952495359735,-37.68110754161882,-0.038650746138483946,-0.017411109456289917,-0.05017445726070888,-0.09696915960683195,0.9950957935581183,-0.10933432365028099,-0.9423447603833348,-0.00016732007940663957,1.062769298389031
Walk,4,0.1636067131188701,0.12763746609551443,-0.012380807100161442,0.12146886314333227,0.06686447209097245,0.08728004805585403,-0.006931742666926824,0.9971573331695032,-0.276676871717284,-0.9449947145916779,-0.09032363636848564,0.8910576599668131
Walk,4,-74.88593249822416,-10.532944375395763,-47.79439470884043,-0.08505199064465124,-0.10518479594065487,0.138957789123359,0.04289363781901449,0.8440712403194526,-0.5610850662839775,-0.7250994511063995,0.09973420029470258,0.9967034454551864
Walk,4,68.06434513127647,10.95830770989979,36.84866691625286,-0.17440614522101555,6.111157241598965,-0.8271883447755913,-0.09908329813943172,1.0311637972714491,-0.603417515167817,-0.8109535302796615,0.0875819538989625,0.9836083456171869
Walk,4,-0.11251087325542959,0.04564334551567796,0.04868332380644718,-0.06167796662219739,0.07395270014755176,0.10824601324816052,-0.11350489391194861,1.168041897123201,-0.7107862148130099,-0.5789113208835324,0.2917604877080783,0.9294530744442927
Walk,4,-90.08211912779247,-13.963150632695154,-12.951818264424682,-0.03669158761983236,0.0173145988559024,-0.050779033009552,-0.0021665736663462817,1.1436680674462687,-0.6997735857025886,-0.6313480193480892,0.09290357367422128,1.0524845300887498
Walk,4,72.64493379444815,13.410538185516723,-5.4936924782906615,0.012078827176209506,5.151148431483024,-0.47427639765271373,-0.27748178092899456,0.925531290897621,-0.8648848091389354,-0.5757505305714194,-0.005618140270577672,0.9208666189652875
Walk,4,0.13242805838390653,0.08921422664602192,-0.05806395497456877,0.07162641901482682,0.12319343371116183,-0.13075521987899927,-0.04461559314276029,1.1565141345008516,-0.8436900476093139,-0.3634429677621437,0.006433604815294626,1.0103415195923362
Walk,4,-70.26687195131606,-0.27218211827474975,43.397704377202245,-0.05515348310301202,-0.021178341687820377,0.004654290397142877,0.09545540550489734,1.065249613180222,-0.9694122654159981,-0.3237120479835377,-0.009292788808547406,0.7438259139185638
Walk,4,-60.3391872574869,7.0802564315868395,55.360835317069686,-0.045391880722782045,0.014543365481259557,0.05092312085149998,0.13026929595767606,0.9491433917048819,-0.619391544097101,-0.1726587324167265,0.1869907281947947,0.9552878675249135
Walk,4,-47.15980768283147,10.08813548353088,54.13165662000263,-0.13097560906716785,0.020379064849694425,-0.0760089862487399,0.0036324693017355508,0.8284303932118617,-1.1035851540694441,-0.34134136076955096,-0.00207175773403602,0.8559190943896936
Walk,4,-51.348302358067556,14.70850015611159,69.26798815463059,-0.04807629431721782,0.023937384043930983,0.08042381347026444,-0.036483533015380244,0.8837807056488904,-0.9975326402776717,-0.28191011395175714,0.09147931797938942,0.9671407843899797
Walk,4,-42.505235939030165,13.904560137717846,63.34080988952874,0.16036432176188037,0.013455716662397775,0.1237462962841106,0.02598945967591055,1.0633781735777916,-0.9565651140906295,-0.16846363799616487,-0.0555618720742265,1.0333034774919394
Walk,4,-45.79221155863432,13.19756331350406,75.97168977194585,0.06433275882346001,0.025490404692783998,0.1187771689794182,0.09814959705150886,1.1063558187180507,-1.0136424692328156,-0.4417890695697855,0.023547549484708816,1.0934837399015027
Walk,4,-43.71528338233708,6.474382247733834,80.62513374396706,0.007545640876062198,0.0955595093717569,0.030425903806265735,0.11890253130887059,0.9964896742429383,-1.0896192771679494,-0.2445594686302291,0.35722783698211463,0.9371966258395046
Walk,4,-31.09455326066047,1.9530648676943605,67.05763858517551,0.060419012333879224,-0.10947997817006958,0.03333315784544762,0.06867383864153725,0.8718680641084643,-1.0755452497522973,-0.3270799748751986,0.10981276836027881,1.0595961298996877
Walk,4,-27.780783957969774,-0.3754631529492426,70.61745697689607,0.019637987109211857,-0.031204095961091166,-0.01740812042190211,0.10467847600373179,1.071377260463691,-0.7578804810379404,-0.11456374237293715,0.021018737332122894,1.165914492920607
Walk,4,-29.711370435381443,-4.8822892109861185,79.80469512123294,-0.05397122975507682,-0.06047014471660364,0.012001891932610219,-0.04330312099521845,0.9499646057809501,-1.2094154071889136,-0.21141185013658315,-0.05108141212734585,0.8141475020870642
Walk,4,-23.539850626795097,-6.21369320706767,64.26805426569216,-0.08413163184652456,0.06185259147593332,-0.14618549868063307,0.03270526108911678,0.9744981976265488,-1.0827093776073378,-0.14829774948154809,0.16266588196585616,1.0987745917539964
Walk,4,-22.880988320327145,-8.359751305837237,66.50367185256906,0.005875426067028378,0.17349235564131935,-0.05849534707787224,-0.12271054049203,0.9493810561682275,-1.1377117330291986,-0.10802932141956341,0.06496006885354978,0.9264892485537004
Walk,4,-24.85792056843745,-15.710260966171253,77.1805572614591,0.018906177530912418,0.028091051658037203,-0.04673697614426282,-0.07013870771089857,0.9860025160614839,-1.0989496633715663,0.018204731432750386,-0.060110424905636735,1.2249840985159235
Walk,4,-19.68588781098987,-15.856486844108504,79.0209410088046,0.10177682731154206,0.01701232326610511,-0.013151234720601819,-0.10893924510635093,1.1305807352491226,-0.9226099492962825,-0.18268807006749438,0.05103305702614336,0.9002239455730374
Walk,4,-13.289661300738691,-8.802244410365224,72.87827382119869,0.05108607620789701,0.12494914414613639,0.03257569834714623,0.05653241909430261,1.1336450861808154,-0.9854649947851813,0.15974769706079076,-0.027903341678110656,1.0931830189406813
Walk,4,-10.952099335082757,-2.6789399056731447,85.86160711999743,-0.09261172971699681,-0.026035391432469735,0.004560264240098971,-0.07494600650806262,0.9021815714811278,-1.0476930990512547,0.046497892411919525,0.2250929277435073,0.908764757039954
Walk,4,0.25043119550556786,-0.15844140015663477,0.08828999040901425,-0.1115207106530384,-0.11956915658451091,-0.07015456093915515,-0.02465455980913767,0.9348546487896983,-0.9584397585805916,0.03634444892715462,0.17170409984487928,0.9156858157820372
Walk,4,-10.61170755571865,14.990164159417345,94.18921754973562,-0.14240808775885255,0.14678400599858235,0.1008956225077684,-0.16317631715066958,0.904078003897822,-1.0759383780442293,0.0679570009763148,-0.1286976469864284,0.8601761503074098
Walk,4,-11.489620676367588,16.67959434237582,103.7229369978357,0.07444448278926173,-0.0038960828067803937,0.01072758527865305,0.06660001065347143,0.9140507951213873,-0.9950814583105048,0.01128841112222747,0.12325277538014909,0.9990076969600464
Walk,4,-5.170837376518989,15.20333531872519,93.37313945769219,-0.043364430258602545,-0.2650301978524733,0.0005167977126134147,0.1171486572333445,0.919001562007892,-1.315517665310976,-0.07107680191092307,0.15687016258240516,0.9752094752975545
Walk,4,1.3521433781784575,13.022038077949396,99.0667894003068,0.13676219091231281,-0.08074202070114911,-0.19520425983658865,0.05058932802401248,1.1129888033122755,-1.0935138957805886,0.0769963786233826,-0.0039046584185998684,1.084445203849021
Walk,4,2.1518969077142964,10.292508955493545,113.11161909099678,-0.028555888707169425,0.0908532391272169,0.07384708119638049,-0.15472613445538086,1.139717042507882,-1.0208927740284097,0.18493315489310536,-0.051949732310229965,0.9544532961940219
Walk,4,-1.222707109670885,4.27777688538267,104.60829134124566,0.12505712998802196,0.07076725182380518,-0.02088258743729549,0.0858520667044879,1.1292370936331186,-1.1042311702359542,0.12419180511000569,-0.009363392373856059,0.9637885964753463
Walk,4,-7.527506775453645,-0.883663203477082,97.51271070343279,0.16670295313093653,-0.13030191563771468,-0.13814288765781765,0.037325348407037114,0.8374090246341854,-1.062600262781516,0.09443543055950229,0.09361203844714841,0.8844530707122198
Walk,4,-13.970364539109186,-4.720035407011058,110.66158625648495,0.06265755300450185,0.04437273521998468,0.07710936350886666,0.031978844460192224,0.8407795445916127,-0.9429218654340386,0.17522607675048774,0.1271310302441683,1.0519771877732185
Walk,4,-13.040317639671988,-6.009772978990358,104.67401876426813,0.17816723511514257,0.1105329552397463,0.09058601456744089,-0.10444922937169283,1.2003606299827976,-1.006704362504554,0.0188185506107916,0.08231432711480614,0.9556096726943852
Walk,4,-7.52911497672472,-9.969024782028203,87.09374278093007,0.13255092573814056,-0.03079061541801875,-0.012830849005130344,0.0482050636836857,1.0085776640966624,-1.0421661833884932,0.3265645671297859,-0.12313192366690923,0.9727453028166411
Walk,4,-8.536346299426183,-16.17111501691528,99.52038063584202,0.07956027949224947,0.00011926150369996273,-0.031573075520968434,0.043350058161928086,1.148437699240626,-1.0309565262606681,0.3575536671196434,0.014341995853120775,0.9723255622541556
Walk,4,-7.002630850430174,-15.031637395888627,87.41972098630194,0.16237184780936703,-0.009249692851196754,0.09748607057614357,0.06333621981953898,0.9465680854481874,-1.1612570357409524,0.19807750583946956,-0.08726706614548037,0.9904028323763763
Walk,4,-0.03944238328407962,0.019321052953219772,0.09190491543074927,-0.0793808172120174,0.13230493207799912,0.14201811834779296,-0.03906966327964624,0.9911215342493376,-0.9773506827786531,0.3774902700086332,-0.02657150286229059,0.9648488737204849
Walk,4,0.4538884720489981,6.563131481173666,-107.2653677541501,-0.41852138455876403,-0.16621375657791276,-0.2107363163348702,0.010105284925024553,1.1949798336281012,-1.0174261223398071,0.20536806969260435,0.1377515973022384,0.9678513165209042
Walk,4,4.891982802156477,5.666050274148109,88.35449390772587,-0.031650772397582703,-0.059248355761713424,0.0058423722605390905,-0.20215124013331598,0.960557738765818,-0.8681915283184073,0.1161951001533727,-0.059889447266381554,1.1233786878923842
Walk,4,7.113785679504341,17.89373303587921,97.05440601824505,-0.13367797598426823,0.030544424209880086,0.05371200547223017,-0.10562116558307519,1.0261618931660628,-1.0599287797409376,0.05859198940225642,-0.02655096884070532,1.0014909013759605
Walk,4,5.090330441668509,23.801113827723587,124.05194416981955,-0.014589409703328027,0.013337966515038106,0.0050175677547404296,-0.19422079965948372,1.2618251215228606,-0.9735362677319365,0.181757482831917,0.12238135132793357,0.7536486626584757
Walk,4,2.9298967108388583,18.948196119683768,111.46861353597627,0.10471645406970856,0.052988475245355784,-0.07009498000089924,0.04946674225638558,1.0035816298595759,-0.9626432909897237,0.07543533158068606,0.1391056431959496,0.8901101900399198
Walk,4,3.45709426131469,16.525588749085813,110.26471410994276,-0.061114836178372156,0.0667291264176033,0.06673166746957233,0.04922064451127363,1.0984805356083238,-0.9270462934020868,0.056634123549508975,-0.04293937919632016,1.0541018853412478
Walk,4,0.046772188011679795,0.04269905552333372,-0.11650883093381048,-0.045347573346428555,-0.04275187876024064,-0.05434852124499512,0.048562586283930814,1.0405069703214003,-1.1042838763241496,0.10134656139965063,-0.04633959493748546,1.1191818098775144
Walk,4,5.995208649264886,-2.25136393963187,125.66639201967463,-0.11925083320282868,0.07641108550548203,-0.09210605014953914,-0.03899041892942092,1.049000791849962,-1.0912842525969881,0.2041471926230301,-0.024163966642765763,1.1177409126212525
Walk,4,5.680070062131861,-8.681286094564815,101.10268888311629,-0.10483302579049635,0.1616556630357496,0.056807069647273105,-0.0846407427774475,1.1622884764086243,-0.8801035969146731,0.10232265916110705,0.09069916138211274,0.9908964211518977
Walk,4,7.559764023044585,-14.804313458061419,108.78228901574316,-0.08857736275633554,0.0012786826608490911,-0.049288265678130994,0.044645285937609094,1.089004654377613,-0.9706763021877346,0.2025971748371136,0.06881625272235523,0.9702986662571439
Walk,4,7.139033123429579,-19.481509365017523,89.14953228458727,0.03701087507498823,-0.047349906859747624,-0.07144798006295769,-0.08947498058628349,0.9979007801614814,-0.9716907414777494,0.07355379259573634,0.024904611521778926,0.9141221308966686
Walk,4,4.3853818924622,-21.329388038930645,104.09163349336687,-0.07718795988393516,0.19729603688205866,-0.037961428964125174,0.04380641070714592,1.065538521686488,-0.9637940272926038,0.06619491276165242,0.0038971405565720587,1.0010292291708527
Walk,4,0.7646921217679844,-4.957847083522874,28.001091643557544,0.1258480570088558,0.013075697261282047,0.046652422453181276,-0.05318119665685753,1.02766095754518,-1.0888965833703812,0.13279625426996694,0.05306388802846136,1.0350950466538316
Walk,5,1852.6814585071638,223.80605433013605,-394.74759034391377,0.09276941309815596,0.06989260246346814,-0.08647409644042156,-0.22188306920244136,1.1939001799995035,0.9779826218839817,-0.0274080236780268,-0.13374201521482235,0.9795137909604554
Walk,5,-0.7023301757943567,1.75713648380403,-0.9288336655199503,0.07922811445147476,-0.15880471539339394,0.11975080816487171,-0.14452733958176928,0.9261378799408458,0.9266683310622543,-0.06661206558908864,0.08010406679712254,1.0615649849095856
Walk,5,-0.17978374701136046,3.1985605687806276,-1.7430217660023497,-0.07572234304259366,-0.07409641448558434,-0.17583245400778402,0.02830935425711472,1.0696196450059219,1.049330761934904,-0.0024391888813417553,-0.16737047555904108,0.9890318226529003
Walk,5,0.07990815140192456,3.3975609635100406,-1.5808714384503768,-0.10726891836953424,0.048815394642847974,-0.02409130273571649,0.10969053673489074,0.9640061060556521,0.9248333782519305,-0.06454469765646964,-0.03137130407381289,0.6616069909029014
Walk,5,0.4378644955519224,3.956207627538134,-1.3805446666564003,0.033728604165725026,0.14009084909921107,-0.08457857455181664,-0.05469877597809873,0.9834623228486483,1.0572231795801912,0.08487793610232268,0.001771955168022643,1.0454814939178734
Walk,5,1.2647863016747554,5.14380656743023,-2.1120060715242026,-0.12187311211782079,0.0909805134274783,0.16110702334458246,0.031245945136553578,0.9493835570932335,0.8788465515484432,-0.19678835777147088,-0.023888816980952274,0.9802228229618524
Walk,5,1.9521643194755338,2.4718192063651427,-3.3106177305408524,0.007101313983851818,-0.061604818914845635,-0.1297246991482508,-0.04741077982936913,1.0948219109191086,0.9537197901664094,0.0036133772475431362,-0.15280316076368183,0.8151352932784391
Walk,5,3.4458029439832907,-1.9026058691551277,-4.0945881710854595,-0.09847473017443818,-0.13274582970138513,0.14221869792957853,-0.3072564732491183,1.063635781273267,0.9608690902874905,-0.052319148993034574,-0.07084493703241398,0.8405780427048869
Walk,5,6.762338063555273,-4.371970627219717,-10.013029807796167,-0.07786409343073893,-0.19635803280756373,-0.15858969370904052,-0.030945452064812643,0.9585946227833155,1.030164911073212,0.02099827043461328,0.05149651693535385,1.108243492819174
Walk,5,7.776301430007424,-2.928793883098721,-13.04299451982708,0.0795151045939738,0.037313279128809336,0.03974146314818988,-0.08625718835783208,0.8971856057313132,0.8482654985298902,-0.12079579225709368,-0.03143289386282486,1.062310983170894
Walk,5,8.80730748678121,-4.301014886055862,-25.694405945079204,0.11110407047328003,0.11202854079149535,0.17415513424899606,-0.12234957536766017,1.0968337917933775,1.1572693560906986,0.015070280430851082,0.09395127662003398,1.1300965577963977
Walk,5,10.037785581123229,-6.979276928704081,-34.1806709100035,0.013105522712635188,-0.05863079180672504,0.12329424376347932,0.05649079003303673,0.9370341222507046,0.99042599451285,-0.2857489402305425,0.09780485058614963,1.0203529852760482
Walk,5,0.14593583101775232,-0.20278156799440647,0.12387620593161425,-0.06216804109022457,0.17850952234032272,0.1967211196571783,0.035160752496814336,0.8299701277016667,1.1195459469806264,-0.1383997783518962,0.11310288227921536,0.8481947933140832
Walk,5,-0.09530779502704616,0.019945548775129874,0.011549301175363617,0.07066053273679855,0.12450212174696816,-0.04352179298573769,-0.058335584860483077,0.8279466431034327,1.0322479008267722,-0.29001619974467135,0.22546618762879111,0.9506365886318283
Walk,5,-0.02758569119314956,-0.08375479459754903,0.11429782107371346,0.07860469591956505,0.07903912799783717,0.18358053131462707,-0.059698789086652555,1.0959898371027272,1.010743564377022,-0.07963458446666363,0.13429179722214063,0.8405789280373206
Walk,5,34.74059623326563,15.356027935987049,93.61492508394578,0.9775003476534854,-2.239509429024596,-0.5477932442549122,-0.17842172662259442,0.9037910196852735,1.0152911317126954,-0.1319749983108053,-0.0165705857051724,1.1082772987411085
Walk,5,-28.458145413415508,-22.757149091085296,-86.95915093698407,0.004452047654502789,0.13882943304321455,0.15611641252445074,-0.16301252786312903,1.1026512990018118,0.8926101025554178,0.13692701700768395,-0.00811364802114474,0.967320855223153
Walk,5,-25.830534575724066,-29.12069271533798,-87.80040530905855,-0.17256110670154692,-0.04617029672086276,-0.007313472391068598,-0.12630072663811848,0.8473022965158523,0.8904515434895591,0.12849575217413323,0.03212047256325421,1.0666739051480125
Walk,5,-23.64186094150554,-39.89952435633896,-103.81842264585651,-0.03882291847252925,-0.024906910269961634,0.01416236528602298,0.10895333591309043,1.0668558970769253,1.0374618631398937,0.21916284636397804,0.22677058856802468,0.9261738721853394
Walk,5,-12.71850884613642,-36.68834978393993,-92.17626601764795,0.13071573502140008,0.09120290492299779,0.11773946856206986,0.0163139221717467,0.9802280184416708,1.1232697692614655,0.13330878480117644,0.09349529482627676,1.0806232752441725
Walk,5,0.03667391454924895,-0.05654409377895906,-0.2193634433129618,-0.08226225019594874,-0.00029505741142237126,-0.10551994185480969,-0.051093928271337324,1.1449432698092399,0.9134306855449701,-0.02341512222829685,0.07211653510910732,1.2723635152543862
Walk,5,-6.337928542793592,-9.229018398763143,-105.66563091740758,0.13599686727047644,-0.08196457891506084,0.0711195240282599,0.03415224661894231,0.8772494360885937,1.044289261960582,0.15790484165537022,0.012785485239462754,1.0391519370456288
Walk,5,-0.9800316938845478,19.057266292371416,-99.04440394072209,-0.027207205554072654,-0.038745402857995964,0.1678338898795534,0.1860738855210031,0.8895557957596442,0.9469819507472974,0.09077827005669191,0.10657043726041143,1.0324781289040166
Walk,5,5.367652891465982,47.507203488598456,-121.72132299178114,-0.03405417033765331,-0.10702695090896748,0.14323377238855395,-0.17127878517302544,0.8926414921013509,0.9963145380819765,-0.09997629906935088,0.10057124937943888,1.196985422034123
Walk,5,6.1000413206324975,59.290897369968164,-121.19647778322243,-0.08402165106404696,0.04330498077770679,0.06805026201093502,-0.09398016342911367,1.064805792249453,0.9816315035262111,-0.015644458254763096,-0.20860568522492978,1.1843548758286842
Walk,5,2.1225607068394274,48.96247669930344,-88.88532160392509,0.12033290815552476,0.06835391045847379,0.08842824768298374,-0.08310112366140149,1.091142541718918,0.9730738906041736,0.04623477695380098,0.027022600326010657,0.9252277493593772
Walk,5,-1.470312046357693,32.724208114502645,-78.56425308592735,-0.05165326596946794,0.12327519480761173,0.06546126765240513,0.07789636505047787,1.2014281596066532,0.9913276773414395,-0.009412327348109976,-0.02377987001844771,1.120834041896752
Walk,5,-0.9124076792664417,13.352299466852738,-90.1050944387662,-0.07330373852139026,0.06652579419719275,-0.05741873019390718,-0.11992312314866968,1.0157201581035693,0.9541323285761323,-0.05073762368405192,-0.1342345802812337,1.0107467391548068
Walk,5,6.428336190220602,-15.715753882777467,-92.45976234650666,-0.07198609119461087,0.03156406605651698,0.1128244926003786,0.0772265534551842,0.9785350340064848,1.0434926106192186,-0.18634411534480572,-0.07375267476224827,0.9997103412374386
Walk,5,13.711413032954418,-23.62514887219935,-76.40515724057715,0.007040001955268374,-0.09297064600663693,-0.0932845208503385,0.06158227919942858,1.0110329063089745,0.9402780077056718,-0.17959355960744872,-0.039927529490662673,0.9436975763728899
Walk,5,-0.08134489562677864,0.12383708317927902,0.06410104846554651,-0.02670236983277602,-0.054815294459472225,-0.011525684779329677,-0.09967720377915554,1.094504702639924,0.8913849989316593,-0.10974005783408528,0.06058548364836474,1.2312126012006959
Walk,5,-29.137846537394818,39.289688108219345,112.63145104015392,1.1794513577076866,1.400832346496943,0.16790365369703486,0.0814997037624353,0.9017309158871749,1.1478642002708046,-0.0713401926949869,0.26159323883370794,0.9978778076435711
Walk,5,0.011323255510403933,0.018105024068103662,0.11206592876353556,0.05072323475363433,0.01569991966488078,0.04865491492244688,-0.22880076140943817,1.1073612006617777,1.1635586267651516,0.06871501954206088,0.1745118904053349,0.9538836646340791
Walk,5,-22.46762800811337,38.167124046252084,107.85576291001972,0.5694454729921052,0.5112828680232184,0.11266575261589445,0.12346815448466972,1.0367539515185522,0.9336463180840674,-0.2807452102527495,0.10008194563310198,0.9930890547926877
Walk,5,0.0658845514871509,-0.06626863951308308,0.08836413396894091,0.05227084084742755,0.09014877812270189,0.0694721954115318,-0.11587383835636023,0.9427798585025675,0.8058209954101366,-0.26057558721948676,0.30424178349651343,1.0809860118259114
Walk,5,10.51347339570331,-4.451726377540459,-99.65564384694396,0.18002477080122647,-0.04555133905428447,-0.07799555575365673,-0.1733532716928012,0.9903210014432763,0.8000957069050505,-0.024533714730680195,0.11565189353319208,1.0312110560509966
Walk,5,6.58789439156402,19.230835097425285,-116.41265949929692,-0.008036655844747565,0.025495784687254976,0.023179715925839794,0.04106017812308998,0.9967461007270654,1.040242199792007,-0.2104002799666776,0.0019381981141151777,0.9889257252232568
Walk,5,3.172855301904214,-33.469766201169634,109.22936268180652,-2.559138497941447,-0.21690645221270266,0.5842422816977755,-0.11326194972186993,0.9863461821958018,1.0402323148334367,-0.09160038702498237,-0.060255927481690966,0.9237362466299409
Walk,5,0.24354791599769937,-0.019870282565426205,0.10608884616625205,0.053342269452448826,0.02072229888349725,0.11080642469512039,0.06742400563168438,1.029652009352091,0.9724859363794882,-0.17187156385145136,-0.17210460928134172,0.9886436679072494
Walk,5,7.967390171651709,-43.71271877167972,109.40912001735029,-2.1885849674851015,-0.900051202950403,0.28393070665203135,0.08791291621294296,1.0775255034019353,0.8190068643917345,-0.2220688391949731,-0.07073366932213286,0.9201586896351189
Walk,5,-3.749690449045547,29.973506054973292,-82.47852516465423,-0.02444348439378398,-0.08252041823789885,0.22764390170774612,-0.08519910212438536,0.9181794934621615,0.9001534258356114,0.012415359814436547,-0.012333000101602987,0.9891218484143129
Walk,5,-7.041081243428899,22.052260380315477,-74.20803118243614,-0.0281210272862775,0.08178410104299456,-0.012405326341857644,-0.07075859824983238,0.9715108889246714,0.9334126960227807,-0.09214128629418614,-0.059570803737969094,0.9014162266779204
Walk,5,-16.948707318924146,12.296467168418667,-89.91871976102057,-0.09152486717693145,-0.09314926134729373,0.022734469581024527,0.08456930842165727,0.8673277728875419,1.1108197509840556,-0.06665490318379014,-0.11787730562265505,0.9584007691623302
Walk,5,-19.25246683210944,-5.368506135805851,-93.34940138179397,-0.09344794458377981,-0.06422910174217356,-0.08823774000147042,-0.08160841000927498,1.0033987092593217,0.9229236131089376,-0.0319439521129768,-0.04114187682018,1.1925294495573007
Walk,5,-0.01788353071905788,0.0339333747535127,0.06943360411546094,-0.036529983354494616,-0.05863179947878866,0.013832536079962699,-0.1155853566026127,0.9861129906817513,1.09335545721277,0.10329486537937015,0.08517521791495888,1.043875447008537
Walk,5,24.6120083176874,38.14075707749961,108.14148498014931,1.671385477978617,-0.8081232905872049,-0.6490870531244609,0.10588091172276642,0.9539074733996705,0.9662732605960161,0.0577354546601599,0.13077656857374628,1.1009120387760136
Walk,5,-0.056180815940539745,0.03490411729623518,-0.08289691652072738,0.008637355033642566,0.0415679608463948,0.05936477704265075,-0.039428033826966614,0.95940294990587,1.189617496050604,-0.07796759250934977,0.11295052385531153,1.0234305300466375
Walk,5,-31.401383893776934,-46.81885857083337,-118.0993160551392,0.061392332586514366,0.025635568561632356,-0.027153732351365218,-0.09388659032744985,0.9983715001221576,1.0178426543982946,0.09006207965395915,0.07198598865085024,0.9609696816788765
Walk,5,-32.29827395180551,-41.59982856598373,-120.09599059895213,0.10590805082810831,0.0987002880158508,0.016981757428800422,0.10460613522335557,1.158940430545956,1.171326542721731,0.15569267669433956,0.033599368817278846,1.0420507280707862
Walk,5,-22.866459105297903,-23.145876767755595,-98.60275729930243,0.15747107708525018,0.14080179305178472,0.019144484329066413,-0.09265748084284348,0.810510041458618,0.9413115061514831,0.2371628137694567,0.1563934701057373,0.8602879950542978
Walk,5,-14.52529382958444,-2.0865923587994217,-98.60134933503141,-0.015716590294941147,-0.14835062283354244,-0.21488318677039503,0.0015691009397735892,1.0795988475042888,0.8916820004352127,0.13308580757159583,0.21336485386459214,0.8768211639700418
Walk,5,-5.927216334485937,26.329332165621352,-121.27337168574762,0.12361286537866518,-0.020998630350879538,0.11098197525021603,0.17533107750450222,0.9600612456313992,1.0684828195533334,0.011436722883126728,0.11873110296709094,0.9015563559653517
Walk,5,4.2380563428980915,36.56834980951682,-105.03584335725962,-0.10031783787461218,0.02977854497419474,-0.07297320333108731,0.09015918827728205,1.0974899998320986,1.0824891385023756,0.08936499062514205,-0.007901131941083023,0.9695959865263987
Walk,5,10.169788499286602,43.07342702049867,-106.97557983297864,-0.03608215849084723,-0.033498316155143426,0.019600394729805747,-0.09143926455972198,0.9139842852337599,1.126594965286352,-0.007847428803589596,0.15275621695526032,1.0219758187667831
Walk,5,9.470960093572563,42.67269511925595,-106.95800358089562,0.029036193950490716,0.029650648992343386,0.1986920970117635,0.15622716627781982,0.9603499141047172,0.8557329009679302,0.016344817578489865,0.003307009951019447,1.0113412125822931
Walk,5,2.83040369033966,27.50675079352535,-100.62869528630993,-0.003082129967528213,-0.018059473546646918,0.10293166907989787,-0.06422059503310336,0.9965007766095433,0.8792248644517436,-0.05569929764452383,-0.06229156093829247,1.0370723956215127
Walk,5,3.4858369428221034,8.430932752368781,-87.04177371928542,0.05869170101550418,0.0966921135942352,-0.21466585149192277,0.218869938353131,1.0389995953782418,1.022438894356609,-0.10097811856858172,0.23695977252280054,1.044317822714623
Walk,5,12.25359993279014,-8.751869891751928,-105.85010561684237,-0.1850509114007443,-0.0040533326528368226,0.03865958198517124,0.017439179003382377,0.8903859578733538,0.8215472523539008,-0.19703954606570778,0.1956752972772867,0.7594329906399939
Walk,5,16.975680191331794,-22.964755802310112,-93.97894609929442,-0.0037594121607711912,0.06025443072570469,0.11969406000235149,0.1781314429477481,1.0578455376558282,0.9676474179320985,-0.0694896849182291,0.2015439168353929,1.0607232664613564
Walk,5,23.2308313918401,-34.843761791340484,-112.41356421132495,0.05604935920546611,0.12427182719016278,0.10153003595767168,0.04379243660087377,1.1779756038918772,0.9868001232355424,0.030690847526190418,0.30013864844678306,0.8972027844237416
Walk,5,22.941362765258244,-40.117640057808764,-119.52150556855327,-0.0007848341659195649,0.12538658177313974,0.15153035642393498,-0.04843140954055602,0.974803291083835,0.8340275131816981,-0.18791398558512437,0.1700852805001919,0.9695389069775869
Walk,5,13.333572943214772,-35.423456962773294,-104.67273269700748,-0.07658569623110477,-0.03815309403492051,-0.08553343496952956,-0.022568508898571312,0.9773274563446135,0.8646647523914933,-0.25003681591412974,0.17353260817905045,0.8525612697809525
Walk,5,4.75255303204716,-33.36994075193789,-102.57290688811867,0.13782742523698419,-0.05497854588632395,-0.17588274693393127,0.03132399140824946,0.9445786795746556,1.0094239347831462,-0.3570527494248704,0.15101876175096143,1.0363413687734553
Walk,5,3.8020569905410926,-30.028771116496948,-114.98385574994215,0.01983856169158841,-0.0046227248728902695,-0.0145155244245149,0.1979279318417151,1.2561329131974446,1.1094444070787588,0.005704079744056512,0.14375292372863185,0.9671892985582046
Walk,5,5.1529084041377295,-11.485308442294894,-90.28166632570404,0.013481312408665245,-0.0052688998331933195,-0.025240940162744165,-0.18257300037242266,0.8440660276987515,1.0215383787882277,-0.20132262064085304,0.09687241261854806,0.9538645098119038
Walk,5,4.2580364555937456,4.191206881458584,-100.22780233907527,-0.10989412069934325,-0.2282282980496426,-0.17277364183448538,0.061671926834098334,1.0900889192344736,1.0683079008462397,-0.14306893432073856,0.007252844741673009,0.9223041955887437
Walk,5,-3.5968327050843576,35.642164716965006,-132.79117240747536,0.06953969188220034,0.0047595179941596275,0.028725928129698264,0.08009315826261836,0.9098128091869397,0.9747254211056257,-0.046862686516288915,0.19915846598628528,0.8809701836254792
Walk,5,-16.93268497785242,59.565085613405074,-132.8077638816262,0.14550557557775196,-0.029251490776696212,0.08330205495300236,0.0835340711649864,1.081841419570881,1.1487695566180072,-0.10817051718895154,0.14702660953842536,1.0285939311200814
Walk,5,-13.550488733602934,53.75601508779172,-99.04391271727114,-0.00397907051184341,0.018966333000144376,0.060617790451743404,-0.011801571206857504,1.006417984721451,1.1964217474402667,-0.0280900573181882,-0.024329732698322858,0.9471104596669623
Walk,5,-6.023018940858741,49.306454221423316,-108.47131525794127,0.11802942930623268,-0.05124173218594653,0.08560521846030705,-0.019826353218118833,1.1143906665442402,0.9545924965614957,-0.1305301017794032,0.015125366711263646,1.0493862916509766
Walk,5,-0.0652831380135969,0.025338867942777787,-0.14100996435788843,-0.012906110789301501,-0.06482469480243695,-0.025923041576939677,-0.132904485158885,1.0135420933212504,1.0544228168479899,0.08348701940279044,0.04764935100772784,0.9397105258168374
Walk,5,-22.7108541775186,21.641210604897957,-110.33355042437863,0.04036444502855564,-0.008116402545664867,-0.005841599125102245,-0.06529119993001646,0.9888167333832943,1.0814969724930756,0.06266028635748541,-0.26815430886849967,0.8951797041471888
Walk,5,-26.20407231461864,-0.9158124118534422,-115.72140756790546,0.04626382479314699,-0.1632548846327978,0.1187920559108003,0.1246873136379294,0.895445419383903,0.8449455965731181,-0.04279334577643061,-0.07132370946647706,0.9981570579263004
Walk,5,-17.78916805576687,-20.011551391752732,-101.6160271703327,-0.03864519770728535,0.0945588802712082,0.039964859019647414,0.08830840382194022,1.0303059912413073,1.1836336932995057,-0.10085681596860006,-0.053835894118890254,1.125217579650615
Walk,5,-17.239075956970492,-32.34075968063156,-102.81540986453298,-0.2181402914116395,-0.036004867131537215,0.12481781251093638,-0.0035610290636747567,1.1503350915746062,0.9804583409534285,-0.04065443934091064,-0.05154394758917177,1.015860179177075
Walk,5,-24.60911166671334,-47.19535177779346,-125.66084829084078,0.016367210989785507,0.0527740528144687,-0.013561506610449718,-0.06746016988386977,0.9406250268063803,1.1140560238981756,-0.11629135351760976,0.01408793749043799,0.9950989185221664
Walk,5,-22.98187621737147,-40.5331981744127,-106.45482495303229,-0.03243579288957163,0.024442214567120132,0.09009317877800108,0.0574972599569631,1.02315276846828,0.8949179516889171,0.0631362276465332,0.11651607969124442,0.8724901261857149
Walk,5,-24.444682888358123,-36.77032848670308,-104.43620147780662,0.1449512602232118,-0.06450368448456535,0.009778183971472156,-0.08322364263524944,0.9883922239837449,0.9981956427461639,0.07871251134632098,-0.012295469236189682,0.7855646733380555
Walk,5,-30.77146161124249,-31.415351339963806,-124.54379672312241,-0.06008913429888675,-0.1377842244817424,-0.06575028102840308,0.057548547171999004,0.9560404423131534,0.9652187415631204,0.012847014344293417,0.1275292170215768,0.9945499286109439
Walk,5,-25.745837610782512,-1.4489491931645497,-122.90575821182324,0.12494419491544756,0.15066574630010093,0.13655771391222493,-0.07668972424397699,0.9073581144883021,0.8558145030998147,0.08145816187819506,0.08801044646101651,1.0180048057456463
Walk,5,-13.81682082457772,28.921209769823722,-112.04183985287547,0.12973872282951976,0.16384791483006728,-0.059093913045392944,0.014853433899311232,1.0594895364364643,1.1429265828808732,0.1329901064390966,0.138352633413761,0.9355339319437617
Walk,5,-4.836250952316518,49.9114643651713,-116.58082037625363,0.04085547736033555,-0.1398689696931829,0.13932450558697942,0.10768483811816737,1.0138762005128876,0.8401565559057446,-0.0348449538204106,0.019094449307521463,0.807595789785819
Walk,5,-1.9706075065011486,49.75511876891749,-86.9629150902358,0.010944260190752697,0.1425093222444341,-0.11191357528908095,0.008015338659829847,1.0363610791756195,0.829854598439527,0.00788996907252134,0.03247781015010138,0.8536392272209045
Walk,5,-3.187992027283307,53.99128627603309,-96.40085218796355,0.08255782236546598,0.02929403588396487,-0.21762306315576982,-0.07292240444171301,1.1062229294264991,1.1077017841356225,-0.04334974388923608,-0.0811476271699132,1.0827853947276342
Walk,5,-3.643131525743576,35.10530409159991,-98.89556320913091,-0.009889085720640876,0.10516815420145317,-0.010749664511188113,0.13428128764213196,1.2998491265408412,0.6605671711152629,-0.07152315392700682,-0.13157343394266585,0.8569273116531984
Walk,5,-1.8727056606646721,9.111529948573171,-85.38477976470445,-0.08124626660775597,-0.016098538595997438,-0.017429960210280936,-0.12832053235674343,0.9891672882793042,1.0756792802575104,-0.09359522149287718,-0.04328264337662134,0.99829768859324
Walk,5,-1.856584205262588,-10.151296350734333,-85.19787877604995,0.017806206402027482,0.041749869143185715,-0.07814846130916829,0.11031618538481054,0.9512521978170592,0.9842498670664939,0.06124532287138401,-0.07928752259829605,0.9745598285185668
Walk,5,-1.6528266599581747,-30.39423226342307,-98.05894294048954,-0.1955688406973462,-0.06032105650917532,-0.06036084770419728,-0.12408042891445396,0.7895044225296668,1.0802242081322821,0.05368862182860058,-0.1603242936966555,1.0398668651204028
Walk,5,2.006962615645576,-37.315566947565166,-86.26531561251022,-0.04348032507780509,0.14287986724732815,-0.038698699377821826,0.11318358420490161,1.1546059917540903,0.8510059904627851,-0.09169218147856263,0.159275529137425,0.9791759511164253
Walk,5,7.178089837285026,-47.02744892580687,-95.07307325663804,-0.08394335750575675,-0.1017024210294753,0.015535598839550142,-0.008445739272322414,1.0499302365973406,1.0139557953372818,-0.1249996478945666,0.10709162903252503,1.1359558267912182
Walk,5,0.033687934715405675,-0.10997391353037961,-0.020511529039806405,0.01386444685813009,-0.13477761451341194,0.0417314690120165,-0.11935520606178805,1.001111437339755,0.8366635581293057,-0.025809027094152788,0.18043165101885686,0.7753495787834793
Walk,5,72.64550637876293,127.69816676505391,-888.8227454188032,-0.00076355266134568,-0.07305764143125376,0.022511963557609017,-0.12519950569073296,0.8755284030397573,0.9562020682439414,-0.23062059073063684,-0.0264691284031765,0.901407895982884
Walk,5,-9.293804503330305,24.36250956500819,-103.64063289310577,-0.10961582150004534,0.13596840569128385,-0.12211381620639412,0.03333924199844786,0.9858704320774999,1.1065023908331395,-0.17326090714987008,-0.1728012614158674,1.0601243359573997
Walk,5,-11.735761774702812,2.598826099760429,-86.07973122776997,0.02569323808703884,0.057214694619148146,-0.025912841649216707,0.10321145737290444,1.1426362707558917,0.955447582639588,-0.03920350916741699,-0.017274537718656162,0.9386903124529364
Walk,5,-11.753624571820296,-16.54643757382972,-88.33746412457108,-0.11642132227054394,-0.022855659863339272,0.0848100614330134,0.13704124595921904,1.0519099834685879,0.9781225944577913,-0.11795006629492877,0.0054243728645437875,0.8806846160838286
Walk,5,-15.17100220271167,-45.57502113847073,-116.043599187088,-0.012911165533567373,0.09197306512187262,-0.20363664495305087,0.0730009791659281,1.0366350284725556,0.921004842769059,0.03803848288004506,0.010373291060710346,1.1904904275579693
Walk,5,-19.459880574551523,-55.41125475560271,-118.5222247630203,-0.06152833934342474,-0.14056302737920634,0.07070676878069289,-0.05881210285196341,0.8350104730448153,1.0992100847332502,-0.15670370562941338,0.13767203630218836,1.0275713797998698
Walk,5,-0.016248562012435987,0.05769834510290726,0.010152032054218708,-0.02113215213294914,0.08129330253059386,-0.09156357134653799,0.23758140264263042,0.9672774613027966,0.9943662426939375,-0.10118850092365779,0.246877842776696,0.9162259252846956
Walk,5,-26.443934987397984,-41.30832411719835,-119.86061731242224,0.04120165732201187,-0.041695610028163736,0.07160082322032145,-0.197941910232082,1.1130439699695387,0.9895610974752385,0.08543839829014772,0.03276229854915107,0.9642039283175573
Walk,5,-16.079606546439347,-5.2508502460313835,-99.3150619924501,0.02558949640236674,0.04982990465559886,0.023579947843242056,0.13373538668071622,0.8453520906947891,0.9133272597511921,0.0933701668192638,0.05520512676972801,0.9075032944921038
Walk,5,-5.532190978383897,25.29310541883639,-112.2037105768529,-0.00417903680180824,0.13920763009905193,0.08141717582333893,0.20064400138320365,0.9292171430335376,0.9907916518716089,0.004476311470038626,-0.029614114082215384,0.9170635444484361
Walk,5,-2.592995324108196,41.67863098621901,-122.81105178545204,0.09571545530590869,-0.05456070345731664,0.13100555812654768,0.03986055313306229,1.0419840032997012,0.9463205596859775,0.21635012739848,0.06374085728916226,0.9928098219558686
Walk,5,-9.453422668913563,40.05735654631476,-100.12634320874628,-0.12545717967771985,-0.017230520726164582,0.12988653681486487,0.1785928871105882,0.935019401875997,1.2431777837433788,-0.0030456692934381635,0.019298605215302217,1.1372348788408073
Walk,5,-15.708480570756773,39.773402530299464,-93.67022039370934,-0.09006858218161116,-0.04108120193357581,-0.1004881231615198,-0.08907910955511139,0.9765142956544791,1.1113745339887626,0.0530835166219658,-0.05985680760225064,1.0726486539669011
Walk,5,-22.004042194788667,37.53196568039059,-110.57304776312962,0.15428014399522044,0.05439934197830939,0.27706392415091563,0.11860473686095217,1.1691877714622945,1.0155641274346205,0.2852801670405389,-0.17941661595153158,0.9784097671168311
Walk,5,0.09850572151068882,-0.04683963508892109,0.16299971976015215,0.03307648659739701,0.004413379113913002,-0.0044047308940011005,-0.012247298641654941,1.0166601773322013,0.9023526445946858,-0.025559299802196456,0.0414008759955818,1.1286339867661959
Walk,5,-0.08315792422825127,0.13013916386568145,0.21161357543912548,-0.014631802815179038,0.12093431200929215,0.03926618583062423,0.02440321247052964,1.025952134210044,0.9419702847449805,0.1849164156867125,0.17429590366202102,0.886622752477443
Walk,5,-32.455998339390824,-1.4455109584943209,-113.05154551865715,0.06646156884323287,0.13927045508643937,-0.11081617922216565,-0.07798276290043983,1.0013933881360302,0.8977830097032826,0.28719073352691343,0.29414878662411836,0.912402173474856
Walk,5,39.71382864808001,-15.029453054654072,87.16812327399828,-1.0881645340623265,-2.600192162595313,-0.770568288008202,0.22033373864224962,0.9416112696173262,0.9649202931638501,0.3443949590011033,0.30062176328476786,0.8589025823308972
Walk,5,0.11522092273016844,0.053473453712397145,-0.02897208110001037,-0.038240146078081245,-0.018368952487965818,0.10006983671344434,0.0027776884696977568,0.9879834511106022,0.9408768987972252,0.26450789115863527,0.2642563217917683,1.0955007188386965
Walk,5,-47.86189734403663,19.15971435260219,-82.35277296774177,0.0787322694270956,0.14458748543648878,0.11958239455144398,0.07954911788195139,0.8871160922576756,1.0143205061341465,0.36655175742175505,0.18167275485567042,0.9134146456733256
Walk,5,-37.92996741417174,4.191935292198565,-75.07248979308615,-0.05889715604334703,0.005979179015221734,-0.033281164108532844,0.28987804803594586,1.0275813575638941,0.9645260761973949,0.41506720202851055,0.26973794544558244,0.9941804736657229
Walk,5,-32.59907593448017,-4.082273607906432,-65.49510357553457,-0.03586411074474582,-0.06008981431620811,-0.04768968372625359,0.14364094652659345,1.090900820765841,0.8936766427085983,0.3426833088352388,0.32581161192649377,1.0872992694811754
Walk,5,-43.801418288794636,-0.08260797209614779,-76.73536697462946,-0.02107257783106467,0.08594922249553938,-0.031159067134336794,0.17161345161217673,0.8415503794984499,0.8907349330033043,0.3162305904170022,0.3172766961247644,0.8050234754092904
Walk,5,-36.03676830756484,3.980380534733556,-62.81885915919205,0.06815993694017725,0.07208492247779434,-0.13024824659349107,0.36719820878773457,0.988508995010466,1.0135981982316544,0.5620234859131245,0.2853735366459022,0.9093392873249133
Walk,5,-37.23816941152129,7.697034991307638,-71.15851798633018,-0.024994845825841574,-0.03867548061608203,0.22658089954156657,0.10007016853354714,0.9049788803434442,0.7773253096928661,0.618625719920804,0.005859112897407634,0.9261038288667139
Walk,5,-28.633574023049782,10.477426065158074,-62.72702975772478,0.05489802496001486,0.0012043023978868868,0.09135240927909452,0.16868872139883626,0.9461800224501773,1.02956863429514,0.7887381258439022,0.13396597786807946,1.006722891510634
Walk,5,-21.44818490205032,12.215416292855439,-46.8830559509092,-0.11152320740212762,-0.07463690663049227,-0.04906127708245462,0.1701621218342059,0.9835785507572045,0.739608197604077,0.6613641221963301,0.03843568337397679,0.9044904490420889
Walk,5,-19.992766471530487,14.87601155672687,-42.13161968203112,-0.0571348235489598,0.0703005701891319,-0.10535305969406189,0.23039306556249825,0.9681124762663064,0.7806220455683216,0.7391772576607696,0.11482387482252458,0.9668161098029996
Walk,5,-21.135238251753837,20.977405512805465,-47.57658331053401,-0.08838378096016293,-0.12084273780433502,0.033913122344131616,0.20837537632403721,1.0490495411180838,0.6314475355681044,0.8160413573248715,-0.07442349445686981,0.9064831586923183
Walk,5,-13.983810920694463,17.983144256899692,-36.689167492776875,-0.10599170765388417,0.0344447772169718,-0.06362845762825103,0.05270016360460966,0.8693929539505132,0.6501601996974218,0.7414029288757013,0.26698275822233536,0.7784358864380321
Walk,5,-8.838849365239968,14.241504266421222,-31.03909372765305,0.02030743712534606,0.010522276833848404,0.035344299768659125,0.011117967095135767,0.8563360302163296,0.6384061418189982,0.710175578014691,0.05801148956138956,0.8280153190379062
Walk,5,-6.60750315244904,12.37755866067267,-29.710524911198917,0.07264740246109572,0.09432584903947457,0.09502270451607925,0.10410105102817695,1.0429940413725716,0.6331509757437561,0.9504475543956865,0.08067493109728699,1.0816918539465743
Walk,5,-6.118391860795084,9.274537679056628,-24.61905924336844,-0.08156592592062685,-0.09607695045749134,0.03215458371115173,0.18068003821245743,0.859642310409117,0.7165654956677519,0.7839673299250282,-0.04317218665508706,1.1919288160263186
Walk,5,-5.231029125377604,5.276881271086198,-18.030852257377223,-0.03082826102174205,0.07514044591224386,-0.2654762547970281,0.07963474734267761,0.9883844216896495,0.638147238600862,0.9089275182958819,0.016614761300594777,1.0200979077310313
Walk,5,-3.734285612263139,3.5506597371696804,-16.522149155737267,0.04447592945227618,-0.22477432988099347,0.21168741929440776,0.1744815856613921,0.9392041465541279,0.7433739943612205,0.7580692997620498,-0.06262368068922064,0.8346187614397507
Walk,5,0.15666800626887165,-0.04155310994611065,0.14529323144844258,0.10749207857012309,-0.03766905949603917,-0.10442701120437568,0.22464457488539108,0.8634791541213253,0.6074831267652286,0.6550803879528752,-0.005999656506318476,1.1339399601218905
Walk,5,-1.081002555162604,1.5768980891838944,-6.7069344743986345,0.048996286806338676,-0.12301646642523449,0.004202745148953193,0.2038624505442167,1.102131566140157,0.510207482825113,0.7863814755742277,0.01405059978036894,0.8912710876336313
Walk,5,0.060745094104385625,0.11077406343063737,-1.6823782765521271,-0.09935770419504139,0.04973806037247613,-0.019431321769732016,0.25308459844535114,0.8448275413333057,0.5958821463777172,0.7874143197913384,-0.1704549559199655,1.0646225807802172
Walk,5,1.0298107880681993,-1.412014386764279,1.5711435804438314,-0.06972200049726973,0.016032549588071193,-0.15242303745596078,0.18272569745801914,0.9579768136023544,0.6238459552383777,0.9671564097797711,-0.16158061186726322,1.1129191482227665
Walk,5,1.6324427687575471,-3.813369932300495,3.1718722786260285,0.008062018560729783,-0.16869074784343424,0.07509554349087494,0.06114946680490363,1.0575913072030803,0.6063907017510002,0.8515292966194092,-0.012509340932273974,1.126820723700012
Walk,5,2.7075239091019077,-8.20341852339685,3.432752732265763,0.2500419536373908,0.11881614000515671,0.00462434012952671,0.16242454282678423,1.0604500019600718,0.7794212110427035,0.7479268942168446,-0.03658237822239568,0.918923673592903
Walk,5,3.511262430017151,-12.707540977140654,1.3207248744342697,0.021606508456377058,-0.02594423754232585,-0.0016066976173061893,0.05657234202375214,1.071683732497096,0.4123100221414475,0.7374255214318008,0.05164319200248378,1.0164902190891416
Walk,5,5.100021384738111,-20.050846411250102,-2.0245494879431463,-0.02492877648701904,-0.13460613863148224,0.02508073220746713,0.19025621872137477,1.0208988855972045,0.5554899870459921,0.8029135146909857,-0.11429094723787339,1.0550988527529193
Walk,5,6.16067321421191,-33.074491165628345,-8.059002514703291,-0.040328773689712875,-0.04625880965408939,0.03196614688632499,0.20833164079165853,0.888597354734138,0.4818109041079988,0.8618524630396802,0.08251259331715832,0.8688502426836193
Walk,5,8.151929701585383,-37.767342012611685,-15.712078697497486,0.044708455841585434,-0.09175328384379663,0.1579910416903006,0.22628086959668117,1.0450082905483846,0.5668942825902603,0.8938446365150572,-0.025052496029095844,1.0665560807388876
Walk,5,11.78815681402187,-33.44118941400203,-20.37249145871739,-0.0023826161877528664,-0.00011979708113227445,0.0271804140473565,0.45810619195104174,0.9896994302989994,0.5215283962022448,1.0499001878342793,0.27005355149332666,0.894531990661465
Walk,5,20.2513055969396,-35.24614334229741,-26.708779302912955,-0.021080381328017716,0.04172535337931167,0.08299203090977796,0.19049879556812066,0.9505639698724481,0.581281995564992,1.0580852089598802,0.4186813492296709,1.058203261970643
Walk,5,20.73365687057892,-23.599798622411456,-25.38036095199068,0.06291217060505842,-0.0026151105929953992,-0.07808571833633653,0.09239346936920334,0.8678956037076359,0.6375691848113554,0.9662312675575355,0.40575693045672157,0.6940548610953068
Walk,5,23.650185166816964,-18.954791807655816,-26.4956554495206,0.1208501285118909,0.020597098529060946,0.1007125583426618,0.10708930002805836,0.9001946117293091,0.34567795097403214,0.8968585771373421,0.4226884466670338,0.9410136861204478
Walk,5,25.49461943942976,-12.910254135530813,-20.186346200458377,-0.05583269338005814,-0.01759416403716133,0.03835199090669857,0.22232735111768825,1.0315741588376455,0.1422062506007731,0.9676475733233011,0.3216350812755486,0.7958896590910054
Walk,5,20.91731036184321,-5.569713059646214,-7.656699364334853,-0.1745525351585915,-0.0022997182281216384,0.02199551032900982,0.24788622716198394,0.7282400131128925,0.2719463228707568,0.9235626740319465,0.37365904110521675,0.7971353235681893
Walk,5,21.518913996142928,-0.9885836495878736,0.5907562604854388,0.08217566019767286,-0.038805567212583846,-0.07853208327677456,0.16568906861786292,1.1386081906695729,0.12140895529099956,0.8255010563149942,0.7271072130864406,0.7964932930288845
Walk,5,19.5312395201058,2.741725386995091,15.312355776849646,-0.04581251679870283,0.020161204764139615,-0.024813492685360206,0.3752431197062481,1.1558575811958485,0.07285163193742306,0.9495924329908249,0.6801886470720407,0.8901334168862429
Walk,5,11.055444353340022,3.024563243297952,19.132180886724463,0.07213882928107056,-0.08695920171176913,0.19140782050847513,0.2367020906903703,1.038609159436698,-0.20923689599580036,1.066011192273184,0.41544393852887407,0.9505879649880928
Walk,5,8.029363228205026,3.6570516268372018,20.922301029302023,0.13074504102441806,0.04398672619377811,0.12299135587914006,0.02016795653756464,0.9363676178401142,-0.2774415757634931,0.9272223138231515,0.5093001179385417,0.860058207912117
Walk,5,-0.2051223593119112,0.00011860348690599399,-0.012026523668066098,-0.05412674250019785,0.037452096367281806,0.0747099401232491,-0.15522957586350455,1.0207835126080667,-0.403195056259303,0.9677375892399004,0.5267629762189768,0.969270728639633
Walk,5,-11.942435050751937,-7.742670374388743,-20.9969681072644,-0.8735000928003936,-6.875169465150672,-3.0318104267085846,-0.02567801856743872,1.2370438653621756,-0.4962210606721774,0.9662180523517073,0.5595044480880932,0.668813617990085
Walk,5,-0.11162132125152363,-0.05883986193798332,0.18181445776681937,-0.021634715402041448,-0.10626445500031063,0.02083007253380456,-0.11213707964230128,1.1137410320919545,-0.6545300402135864,1.0212914867252736,0.3706378462017564,0.634954479195639
Walk,5,18.423668792072025,16.462056805213464,12.72689779695142,-0.16663869427696928,-0.12506334201670313,-0.018583984796413933,-0.34855957135995713,0.8900411526087519,-0.790136726584914,0.6292338927881714,0.30429159977552,0.9923424324986209
Walk,5,22.756647468149197,18.82207349062364,10.8272099456935,-0.0899878319890462,-0.016733427947160793,0.02888138795186699,-0.026085576422158585,0.810923168550673,-0.7939983375015893,0.3664799927625142,0.27468566497140084,0.9653045728672498
Walk,5,31.83752053660236,22.28022714729261,14.483025828872593,0.12146480108596697,-0.10082801655470686,-0.04611174637860912,-0.13591446145116926,1.067503992977821,-0.9086607258296802,0.36444216206353974,0.22740144481025903,0.876412945972498
Walk,5,39.46237942725431,26.98193042950556,27.32957421539339,0.09749789202607435,0.030988577455625953,0.07865537573160114,-0.278216582254768,0.9702954936022575,-0.7723124442549947,0.6079049051820048,0.09359134038868132,1.1822619448265117
Walk,5,28.77190847689504,21.812800896773954,28.281139184410772,0.1664914550649486,0.05706640499434632,0.15873305730655385,0.005125036305664882,0.9289810014431177,-0.9780784674191334,0.3451333623882423,0.0903224331419227,1.102919538679828
Walk,5,-0.006618986665878627,-0.2699749909473043,0.10001645171820438,-0.06517088357677638,-0.03150279026400923,0.050021244605919335,-0.04147419036110986,0.9481664117076108,-1.049982291131491,0.1364091758166306,-0.010039056141546661,1.025773019241381
Walk,5,25.105853886740583,26.771818942084103,48.868158800469764,0.003064172396211229,-0.07366880529634201,0.06507847213244548,0.02970916830739398,1.1258429125412581,-1.0362485378211708,0.22743600466825004,-0.01354276150655654,1.153056615599322
Walk,5,11.762612957311994,18.78300595770541,36.27467663672651,0.17487920584194405,0.07553500824697396,0.1517118554175226,-0.15444421101859787,0.9771015882753727,-1.0122692409398728,0.12815837997942842,-0.1264126939371425,1.090329804840625
Walk,5,6.34054577348147,17.261684303650263,36.41974918706675,0.138980577533317,0.0132109357949665,-0.04776163317278137,-0.21699288384505322,0.854018462998144,-0.9108422239723044,0.127183763758824,-0.07853960039902727,0.8839848496290624
Walk,5,0.6873295264721712,11.801687060958468,40.86525981728421,0.008189963695672675,-0.07068853079183555,0.21438981000959167,0.025141940551294067,0.959123305891243,-1.0169262498324985,0.1587900771808266,-0.06470380656898099,1.109952304683342
Walk,5,-2.362800774392763,2.474452877677715,45.53686933359161,0.06977327588715088,-0.0768754614093512,0.03171713518022697,-0.14293370693525972,1.098850343212507,-0.8989385303900629,0.12543635946764176,0.17258901552545441,1.1040199302982314
Walk,5,-1.1124900460364424,-4.72822331116293,46.26901068306591,0.11588878839229128,0.05552827180995286,0.18047463851952772,0.023987119289368475,1.012617956464238,-0.9944503978815922,0.19247890839799464,0.11261656314094602,1.1213838733617145
Walk,5,6.72672550552369,-15.050584490886648,71.63389321939681,-0.023228197659176008,-0.14838347763514248,0.0536056937939169,-0.1304583295182793,0.9977248620420601,-0.9835595627115734,0.19378498758132476,0.11126480031465752,0.9274580942514408
Walk,5,9.836544559264969,-24.368431790943163,75.6740380334873,-0.05146112768503658,-0.08889994388562489,0.0064045761031469375,-0.19397342509754498,1.0659125811818566,-1.2108012221277602,0.3774698731609846,0.23722198307157918,0.9933848290435815
Walk,5,0.11029016825152839,-0.04288793785136099,-0.004342054964671364,-0.08336258142770253,-0.08677911051361573,-0.10397665054496014,0.13291587172394367,0.8739898777484546,-0.8175432886119723,0.2677536423828788,0.31245269881468984,0.8893351918600161
Walk,5,-4.092650817185846,-46.52196044696373,112.82328195496314,-0.05235049307804858,-0.022802237831844725,0.06575667069950437,-0.001104687113299245,0.7432435428456718,-0.8650481321239865,0.4292087162100065,0.31227970458053894,1.102625753030529
Walk,5,-0.1864758716244414,-0.2791893475344473,0.0124690518915176,-0.0032455880495400116,-0.1414322582873088,-0.14481443337344582,-0.12177675721814173,1.0732678215839642,-0.7747173321702365,0.24063236678479394,0.3605677162823809,0.9715849009512166
Walk,5,0.08681893325366706,-0.023857773750568106,-0.00881914799779728,-0.061458963396939195,-0.05542851519037535,0.14184668095513595,0.018468355527901142,0.9407066406412037,-0.8246734490506549,0.11886095677917446,-0.020921026857441835,1.0268185644977912
Walk,5,217.45693863184226,-117.87174593948704,829.3781171904093,0.026804347958270153,0.02804305851884322,0.02773997811216248,0.13059489431898824,1.0274741778665712,-1.0946100407331856,-0.11137648229860053,0.28573504601878597,1.189021817910476
Walk,5,18.243664520357907,-3.654440843938198,128.43777210551133,0.07784743543478148,-0.2736343929524654,0.07011822959952406,0.13904291850496445,0.9734086985515402,-0.9002675585357711,-0.09449067590192181,0.10511157608315774,0.9177243679932775
Walk,5,6.5503580290007015,29.35845557589508,110.23032422624956,0.04995040020441017,0.08315324128379763,-0.17748090216084117,0.18082603952850462,0.9626293829708901,-1.2343587720447378,-0.06564094701433223,-0.0071321108041144735,1.0317392349899361
Walk,5,-4.314106468668032,49.182793024754666,109.08806625629286,-0.015546870953764296,-0.012446592330715052,-0.16258052861699085,-0.05045085167145993,1.1708749615845826,-1.0389996760611633,-0.22864753788480513,-0.0802354523166365,1.0486216778750244
Walk,5,-0.045509848944675545,0.031786513443916135,-0.05060332209905491,-0.03820552096192683,-0.056410372882215766,0.11639265530392676,0.06018094400558549,0.8809018438845169,-0.9831645218616935,-0.09656921653767714,-0.021793354437620885,1.02635698512557
Walk,5,3.5286753140934333,-51.44020088755999,-107.01206779006479,1.490340670986712,1.2768664004574435,-0.048036480825114775,-0.03003302569559903,1.0221981025070823,-1.1512503342147553,-0.1231945158493544,-0.15886449067417846,0.9208134188425458
Walk,5,0.007486966453098593,0.029625223510469208,0.06991977456062301,0.007218961998973041,-0.09160253950822586,-0.09173317849188539,-0.03261400918849405,1.020589751061117,-0.9785374866441194,-0.043334044174574336,-0.016053856581420292,1.1475274070440928
Walk,5,0.6875174329231758,6.434994643622385,110.2798383402584,0.042554724143373295,0.015680072656367266,0.03224386659112595,-0.1016747436959617,0.9247563976316908,-1.0886264102904235,-0.1125441380918048,-0.0008904912221770131,1.1402197787110704
Walk,5,-7.8662558270174845,-12.667110940236272,97.71053352550696,-0.18657820845660134,-0.06033695938923675,-0.08316005496594601,0.045034348525673285,1.0866887955747826,-0.912402997281621,-0.1980822075483033,-0.1846524763901701,0.8932778115487813
Walk,5,-24.06720689619645,-29.22724588487522,123.96682780708271,-0.05545669814365426,-0.08935888633369334,-0.22224756205942114,0.004421739501933452,1.0018826740755635,-1.2358010180357701,0.03791120152676387,-0.05266748964651996,1.1845900807279972
Walk,5,-34.88093541953157,-38.96896455500287,130.64761536774915,0.038548581451569794,-0.19809666284786465,-0.17623585009890091,-0.04245248272684119,1.0362313131866463,-1.0340694488481494,0.15875054079789552,-0.08421355034592944,0.8760283197626338
Walk,5,-33.02405443234707,-39.69879760668552,117.59606732093476,-0.08532910845772951,0.11776556709024229,0.00507618143787874,0.033443394006388766,0.9051195020391087,-0.9564441979339268,0.3623326083788436,0.17529257895750291,0.9432949120550548
Walk,5,-23.014350840310584,-38.83297556477847,109.83081337481504,0.018083916023818862,0.0395321902906478,-0.1694319468536425,0.08070589666021666,1.0440119034965625,-1.0116136457610772,0.15659637373379484,0.29717118990500857,0.8114495644409465
Walk,5,-12.027044632372345,-40.8585269313008,121.93139031340331,-0.10846768166726245,-0.06124490014754132,0.11109310430008075,0.08826058389420142,1.0798050379007542,-1.0444818756649519,0.20154423583426828,0.03862755882974522,1.1739558377264478
Walk,5,-2.9147279831874053,-22.723464224576485,101.07821617481545,0.04672577518428341,0.0666716352671629,-0.07834317044508811,0.007793553758257212,1.0912604825033807,-0.8059320414739484,0.07312633125361476,0.09665685477698133,1.04155120518503
Walk,5,2.296158878112005,-6.293015077305201,114.07152837324927,0.24908965495742358,0.1346399812897111,0.08001538687015464,-0.0473746446035976,1.0363919729501039,-0.9114995713532751,0.3089337253887847,0.10095061240357737,0.9578025557944375
Walk,5,11.830628263506712,23.522554039184886,134.2323157543391,-0.043678694241537655,0.13336925350712764,-0.009667838737137027,-0.03611310002901733,1.0732377831142341,-1.1123419280085598,0.32509800497798713,-0.0491601248582106,1.0621745181305704
Walk,5,21.753144479159776,47.105143727541794,124.14934131137652,-0.0044651278298118964,0.05557854856320285,0.23757381038407296,-0.21615874211092476,0.8244658356628999,-0.8582313369326982,0.0800255043607212,-0.05087433040709033,0.9856228588247058
Walk,5,21.342689798723352,46.167514701057264,102.86320186050898,0.00031148346031817435,0.11115018814816478,0.1566944170768427,-0.033209128361452914,1.0751991864816193,-0.9749332033862531,0.16357035924287966,-0.012955131073695288,1.084359893689926
Walk,5,16.23963470218417,46.07681900499677,107.49280494903667,0.020793451013967644,-0.1914728108919359,-0.13925494442145414,-0.008014448685141458,0.9959829796165297,-1.0105283468523494,-0.005466608031645129,-0.0984598951524995,1.1059187559960082
Walk,5,9.86399580121607,29.114627729058558,88.12728742758891,-0.10101326831478091,0.001754215502026232,0.10176071315043862,-0.05961555328940788,1.191637170299833,-1.008646066073037,0.10558151044878797,-0.044852281925154995,1.0478823973314637
Walk,5,16.038260244085563,17.78975219980099,107.32103165376256,-0.04938826039672538,-0.029012217528953048,-0.07058231057422708,-0.18048106418709442,1.0753009858522746,-0.9088835497112545,-0.03221487096930499,0.04450236857926299,1.2662286899507358
Walk,5,25.276109453305935,-8.852645076487176,118.17012605658553,-0.16704867394294082,0.03892997763540084,0.05932332592132533,-0.026135816341234495,1.0301467911591002,-1.0877905760656699,-0.05182356756360269,0.08978203914839607,0.8917304095781653
Walk,5,26.295137918322816,-24.421448968634646,107.23349837378498,-0.060804027768240065,0.02532020939310469,-0.15178436860607825,-0.06052945251057297,0.8887311371823112,-1.0159562654277543,-0.0916453232430498,0.03146855259677906,1.09195646908664
Walk,5,26.44439984340059,-33.71848622794268,107.26226825179401,0.1158238511071605,-0.10194282428328841,0.03161794906509884,-0.12441444538760423,0.8723085188907738,-1.0400426714177684,-0.0347623766190685,0.23343137364064942,1.1269365579017838
Walk,5,30.99549186001807,-47.19430038410556,128.73793091806374,-0.13600765316726507,0.10328472031854022,-0.0777433515016931,-0.08234033490058838,1.1268475325635634,-1.0908683403674715,-0.08776224674152214,0.24544567521060234,1.0309132014995204
Walk,5,21.793650112802325,-40.95783547485965,106.27017625797947,-0.04388401457958955,0.023435281992576884,0.10193366834610658,0.19687643294853047,0.9789414427517182,-0.9711432656940884,0.0065200330641860815,0.13233307930658417,0.8544891219335549
Walk,5,16.10901077801991,-37.16988617550356,104.87653541206632,0.18527660434135734,-0.11125503190011743,0.1824797614700727,-0.03664273144554532,0.9086675581767132,-0.9204646721587568,-0.17056247766337718,0.10867790127765786,1.1231772572547927
Walk,5,12.367391993181869,-25.98663418385424,122.4581513123566,-0.01640515087829638,-0.17487195879787212,-0.018312686046875918,0.04796866520945407,1.0081744844580318,-0.9524612180691288,-0.016770838575606933,0.29403557150876825,0.9663309191474259
Walk,5,5.664313280587157,8.62531815055339,118.52234445678987,0.010935547874225099,0.012042459896868654,-0.07187135199497849,0.10127299370661616,0.8607210018256919,-0.9615166383019842,-0.18237997138297266,-0.07703118940990406,1.1058643570685738
Walk,5,0.5827831178391496,30.94939849945397,106.97803474290484,0.13683818549597326,-0.15046290106624355,0.18601841796478985,0.0035958068282578998,1.0843744402735187,-0.9820741692035316,-0.07207807375922898,0.1251410401866901,1.0957339184299069
Walk,5,0.6254664884256316,48.78086528881796,130.38485912677672,-0.0888260773175859,0.046088449588591714,-0.002066141212831084,-0.13309475609837737,0.8698624834029385,-1.1271345384986553,-0.08520715408369971,-0.11316213192694131,1.052344378352835
Walk,5,3.034534932144107,45.478857417781114,104.90583225661919,0.02998541889939388,-0.02680690983284644,0.00011081509193745212,-0.06923040114476775,1.1239312150659841,-0.9563895792114632,0.07481262196943154,0.05427729363118159,0.9868135621202342
Walk,5,5.137434454392181,39.347983712094866,108.22103362336185,-0.06522391652242907,0.09360064345620761,-0.03141749178765389,0.023528109217747267,1.018310951306535,-1.0296477065053828,-0.051012690837716555,-0.13099298758003192,0.8866060134930722
Walk,5,0.12189965971830165,20.608661399789938,102.68743131814512,-0.08500734134911304,-0.1757140625284151,0.15528624370239316,-0.13946173555881236,0.9816423137446294,-1.0007642543681816,-0.01302152522554472,0.022046082595904598,0.921359565717428
Walk,5,-8.079034157815999,3.915679587953412,88.69631601660991,0.11822335996581929,0.24653022666415306,-0.052450798255352094,-0.03620907519530298,1.0689360738207805,-0.8725622668160637,-0.002117554266744287,0.029517035909093325,1.031885254412841
Walk,5,-14.610256488650213,-9.577700257638494,94.34733674715311,-0.14981245571726182,-0.15012209276700456,-0.02673316494474674,-0.09412238415789448,0.7329519516891985,-0.9820638861499538,-0.06322286671348851,0.023942321204494896,0.9705387205808582
Walk,5,-24.563649093395952,-25.553674480184803,114.1406117161466,-0.1369539686012656,0.008213872395919319,-0.02466007616149515,0.05779927323157724,1.1951111754146582,-0.958396304825297,0.038166153993518595,0.10597898844151862,1.0934896555587394
Walk,5,-22.061384990641915,-26.244376511667934,96.96532121577248,0.13621773341082724,-0.2000840264154015,0.12946643941658886,0.09954398805967246,0.9625879001733566,-1.001942166706013,0.10410238064454896,-0.0003789950872776088,0.9403352953676168
Walk,5,-21.026354275109536,-29.362878442076692,100.9526261691001,0.09456577080840613,-0.02165635689858773,-0.02787236679673572,0.10675910815321349,1.0536149483820774,-1.0101664311475536,0.19406926036164984,-0.0729764949785512,0.9633367366297737
Walk,5,-19.96693508767193,-36.0858414842534,118.9126098455288,-0.16883653882711916,-0.057673279221807254,0.09992541823263124,-0.10739518818383302,0.948375956701263,-0.9350830314958993,0.08231909281534783,0.07339416948228701,1.0490136121757736
Walk,5,-13.804034133330342,-33.57617253167221,114.06746971161661,-0.0006576842036929031,0.018451307355933037,-0.04581446881838423,0.013822813740343533,1.1117003822163656,-1.0596734050656669,0.16614407411990695,0.12765056727962515,1.113498108192114
Walk,5,-10.304465047815494,-24.980922839174713,98.51722695004992,0.10651519651595519,0.09714887023924222,0.02695133628902443,0.027630434100043955,0.9806781511548062,-0.8571627709895352,0.15482264292592263,0.19184799119519672,1.0317424455630466
Walk,5,-12.996925564614184,-16.05442119425602,122.24176603076482,-0.05796076384290439,-0.1434806891615052,-0.12819528015951562,0.10769967465864985,1.1296895552448047,-0.8671368172220355,0.042886594059272615,0.23613065946487122,0.899572164083627
Walk,5,-8.128773352475799,6.390771512062475,113.77180111519881,0.06198565671562946,0.029385302699608214,0.030385491480487605,0.038554891477859746,0.8555177519151429,-0.8852378231706195,0.40982675420927067,0.07644305848155235,1.128586097432382
Walk,5,0.11167998588364587,-0.10190966305074932,-0.06021013241756954,0.047284533665280855,0.11945312292969897,-0.21574574224028542,0.08229697659209564,0.9491106923924105,-1.0642311502622723,0.17408182702065997,0.08700931056490788,1.0272105885093583
Walk,5,-18.93404177223573,-52.98330112336264,-135.53944615101318,3.2355036437585176,-1.114865843332629,-1.0077140924213563,0.015158422615924105,0.9232283891997318,-1.0495377770703127,0.15222835923713532,-0.10012912859927436,1.0131307512862469
Walk,5,22.151902495008667,46.17538983389611,109.36174310847798,0.031750488089521155,0.12440455589529592,-0.08902819804095334,-0.038656035087405186,0.836438394317135,-1.0294152397222747,0.1830627675409759,-0.020935891295866205,1.0450627199248295
Walk,5,15.573947753228072,33.068847410256154,97.53023605536413,-0.08306986338943584,-0.10625213068989399,0.13629377297833734,-0.05891323384495015,0.9642263880274691,-1.2951601806011448,0.09225370860069962,-0.12285548853669029,1.0976079318118712
Walk,5,9.479357515526555,24.140602649537716,95.6672194845862,-0.050750616073142886,0.022686146670024998,0.06525434364273887,0.2884651372059943,1.0452662939050916,-1.1489085629015534,0.06821964094573149,0.002698166135975469,1.0068671583126925
Walk,5,11.614693636223397,10.60662604318875,74.18835850580275,-0.11770039630205194,-0.0007203337002964746,0.008974831817035402,-0.022013034259828826,0.9570218862821916,-1.0442941642121912,0.00803799408092444,-0.24600015446733842,1.0102721473121545
Walk,5,17.719777231663326,-0.18820773902906734,78.73539313047269,0.1757852079147837,0.03712388732389538,0.03544213364487962,-0.012649471775005286,0.983178970272182,-1.0181165196192656,0.10690131880273368,-0.1628303901705632,1.143760581942922
Walk,5,24.217143946708855,-21.063709385320458,100.74717901120603,-0.0056761700710149885,-0.06498462162257196,0.08231478305309921,-0.044182772646154944,0.9572816266637231,-1.0605741455015443,0.06712623647620625,-0.025804823603957555,1.0060818249125498
Walk,5,24.701220614115883,-33.91484219323728,104.45888244182647,0.10791179926932956,-0.16919403571217148,-0.08164785627441609,-0.22399661129135867,0.9792043988182422,-0.9953104164675084,-0.09785059718572003,-0.013538582757658579,1.119424540789564
Walk,5,21.767449490355805,-35.05256271676274,95.52270980807619,0.05316710591464679,0.039165504975124776,0.00716843404670407,-0.13773376831199666,1.064121954340979,-0.9768686874095156,-0.168329128623746,0.023604927458369805,0.9399525350405525
Walk,5,23.479206867659705,-43.46149917903654,119.33022714131182,-0.14044809839145245,0.02187115339356858,-0.07910205160994285,0.009412851578677042,1.0335624117387348,-0.9957505610617539,-0.28471020858274776,0.07271877942764692,1.1130421787503995
Walk,5,0.2870662084202893,-0.018317334950984924,-0.042982102381451975,0.11096285449254971,0.1441085475242888,0.12559162452338704,-0.033839695932109684,1.0130107568334357,-1.0557475472562126,-0.05193075719682529,-0.07229442201800318,0.9529889148803472
Walk,5,13.288534969793908,-21.47460139706166,107.54884712157306,-0.02192385141339351,-0.08795159595839429,-0.10119445391232842,-0.14123421157891286,0.9384883301778058,-1.023112897392856,0.0006369918172364208,-0.08195499147498933,1.1413357562282742
Walk,5,11.732380219730059,7.848706970185862,127.36761426131169,0.1163103608631833,0.13358073223618858,0.07539012641070236,-0.046333289983932886,0.9110147246259277,-0.8723100684694886,0.061026078834311576,0.10250727817677296,1.0658713004471403
Walk,5,6.63012485016437,29.790972799130703,106.77331109531148,-0.1929052170097486,-0.1291219574936839,-0.12977934600956434,-0.125196201711341,0.9137351521225996,-1.0488889808608821,-0.1891759782243838,0.09279516136685062,1.0383604142835692
Walk,5,6.257539884587284,39.765813536093,110.86473735633821,-0.15736189824821406,-0.08970036748344373,-0.08821853731898889,0.053359356118675795,1.1972289280119255,-0.8900544216129457,0.029244366201249802,-0.05951283716206443,0.9300798230116
Walk,5,8.574154847170782,47.49001144424361,107.95777051893307,-0.0975857701913164,0.052130384101190905,-0.027583255022251993,0.05334671314644625,0.9789125520917726,-0.8836325113726088,0.07156751003347442,-0.13581957626281993,0.997887853943001
Walk,5,10.702597858903893,30.84989865531621,82.42333935179232,0.0234041948182188,-0.09442277678819704,-0.0654092846377446,-0.1660282282974538,1.1042754935009207,-0.8499764072605915,-0.0192704619759198,0.06259755955704242,0.798896861860677
Walk,5,10.682135762801522,20.803211211586735,78.62102980828809,0.23225690213897163,0.04203927171993327,-0.08328956725219332,-0.057848412246876015,0.8394606161974209,-1.2246667959192579,-0.025723326884507874,-0.004069152542152926,1.0183864835268617
Walk,5,2.414065223026691,10.361675523089572,84.98590350584732,-0.08950970754380813,-0.005053993330311507,-0.15305666040461985,0.0652650682858737,1.0054638604934447,-1.103626486116509,-0.10901898525953505,-0.07404426076933673,1.1545301450317251
Walk,5,-8.838530571726455,-4.085862706497724,75.65875996464389,-0.076819341679943,0.15279203673614256,0.15879494422955942,-0.04695944986420815,0.9925707886144525,-0.7994384160053322,0.029755132432684024,-0.14134298671560516,0.8371503867017893
Walk,5,-13.702543262423639,-13.5550217452611,67.22277374699111,-0.004462815843903881,-0.01228782960492242,-0.10029526143879652,-0.04590506248022585,1.121715567089393,-0.9189275468678525,0.193116603926857,-0.030239432517717966,1.0450398719635634
Walk,5,-26.964641897312696,-27.297756570533657,85.20599123471592,0.03132918781906391,0.12186456081324722,-0.013002174849427442,0.08736573275713228,1.0945865820909308,-0.8983234489514471,-0.07769601202750136,0.06768881853275725,0.9592225896616856
Walk,5,-32.20426842240201,-33.28524338284285,79.3164471047416,-0.0457546941721257,-0.2155512295966172,0.024218900769107893,-0.17858496177183936,0.9384273623206005,-1.0420097219854416,0.14765433976867065,-0.045273720528628686,1.0639694840920169
Walk,5,-35.52447033496652,-43.04424776599319,91.86663057177081,0.015609823062000656,0.1334587996409248,-0.12475060846054996,-0.20955032484942757,0.9847742836259584,-0.9888638582736541,0.08982088007718111,0.003656922461993617,1.0195331204262097
Walk,5,-29.89837403264947,-47.5319929393677,98.64106039202395,-0.06922812265150663,-0.1658933558987566,0.14860061639752417,0.05856054343965662,1.131503182887654,-0.9041040694156894,0.2813621240903616,0.13769407799101058,1.041007695620542
Walk,5,-20.597149155732627,-31.866861732333174,78.35487845486823,-0.03245230279754832,-0.1573059986979534,-0.050957500107921376,-0.11643485609344374,0.9821312758773254,-0.948470120861994,0.1869615041586583,0.18847389351421778,0.7634912683262227
Walk,5,-20.5491788422252,-18.958326262666798,77.2923356489627,0.09479962686083879,-0.1304325087804024,-0.06310154497578375,-0.056181162331367863,0.9840579639300916,-1.2223492598659393,0.1045089612802914,0.2017164428303197,1.1048602775123866
Walk,5,-23.465498068029188,2.4530033564801497,94.50660497350815,0.2225313277228613,0.08255048930052808,-0.04144068157680275,0.14341775906944085,0.877775309233676,-1.0196847357515495,0.38682363816326354,-0.011047582191503647,0.9706570395656847
Walk,5,-13.07634078992488,23.722715419867818,89.97262591336548,0.05966953574683122,-0.13847796699025433,-0.10081639097774753,-0.12461983375252564,0.8966939633823725,-1.1092742162635325,0.1434274883061098,0.07341758298471572,1.2311404460309534
Walk,5,-5.663075841339358,39.12005540869252,87.89850455219397,-0.14562313689978265,-0.09689308357365983,0.15526204496358964,-0.0011564883653032883,0.8975636254461251,-0.8525623241331872,0.26344799331473817,-0.017227711456794567,0.8840446011801253
Walk,5,-0.0742981193251027,0.19859022154762737,0.06624275217841251,0.05277325388431912,-0.07617403519091243,0.024099457295324672,0.07633641732796351,1.02335994695608,-0.8938358307101241,0.14848031254349034,-0.13417123203340986,1.011782354785561
Walk,5,0.07113816290641013,0.05279773779290123,-0.1581583503189219,-0.27502247376865013,0.04431446408043887,0.09730848812928161,0.07173033793472619,0.9753216710752948,-0.9227521380337457,-0.1730413704213513,0.2725961377896136,0.9103186190691995
Walk,5,0.06810445258824775,0.16094324058007192,-0.10296274996007866,-0.22180275814745173,0.08545311050303733,0.12348395455915535,-0.11495694838501588,0.9698444203575306,-1.0897025009540022,-0.18536667382427888,0.11273827986472806,1.0665141409249825
Walk,5,0.16222982600006308,-0.10113662991030895,-0.21049561036864264,0.07319047999850213,0.2909683870862003,-0.0778991312834353,0.12806726903638943,0.984010888289142,-1.1438772696358412,-0.501914223196883,-0.0003501045617385623,0.9821084998437379
Walk,5,10.339022110187754,29.76933325061367,-62.01959562809685,-2.457839225119193,-0.5661564614988522,-1.553358182601148,-0.10284250155378193,0.9649591269356593,-0.7417295865704847,-0.38904544140230496,0.11676127873006359,1.083920762825116
Walk,5,-19.912938601194153,-34.5309269481141,52.095066850008244,0.03629619812833016,0.03316507064134984,0.13424763260345735,0.006808563777387058,1.0561557883183315,-1.061130259094814,-0.23950726327965757,-0.05261435224861466,1.138231681518212
Walk,5,-22.31788421437813,-35.95581206350068,48.775431787604845,0.014435236711055774,-0.010510955706841846,0.08248450280942089,0.13645837371845249,0.9642725704298918,-0.9256025261309695,-0.41479023585892905,0.3068844081651519,0.9830739505206798
Walk,5,-0.012869743658061181,-0.003257053192598624,-0.11136213692648822,-0.029050909729433128,0.12459372068665948,0.07744205384281594,-0.12118848529320511,1.0658393442197718,-0.8423834578282786,-0.3679165323683137,0.29652423516892823,0.8775593208519396
Walk,5,13.503337790332498,28.108865566898565,-46.936315740499914,-1.6382300452198677,-1.5240792584922667,-0.4370841642445309,-0.10440995167973008,0.9637385325852416,-0.832784092269954,-0.4260855986251323,0.3749948241090235,0.8031635981763608
Walk,5,-0.057331477849880234,0.1630762022755599,-0.03284936428373197,0.3099583940765302,0.040441295557884165,-0.007903253966804488,0.02116833122318765,0.9471469009044554,-0.8097008376386974,-0.4385181210399219,0.5445005625648685,0.9205075184842041
Walk,5,0.5069287538897347,2.9810025279892054,-50.743476578165094,-0.2429394174760955,-2.9826446787247027,0.7192336855836567,-0.027709814392977893,1.0691459122692142,-0.5588412142073906,-0.621934448872918,0.3450683104082601,0.9891412142743685
Walk,5,-0.005878133512067292,-0.1573313960426916,-0.11831093293084953,0.0028506478189158028,0.11801684766060633,-0.06302567106769157,-0.08203236377677159,1.0993286172681918,-0.8266968753046433,-0.6929639381696546,0.2251285153271939,0.9708570225680153
Walk,5,9.748888346418985,10.57956319947543,68.91901867623982,-0.09302076330001545,0.031173537634313967,0.08047647496033705,0.002789462171829321,1.1108712204100748,-0.8096558931745789,-0.6248103015819827,0.19652575251653664,1.0402457917479377
Walk,5,2.953075007274573,12.836296329466453,69.73064776718593,-0.04395263192464544,0.029561377997057593,0.013377669269225834,0.24617333704023797,1.0067297342934325,-0.7962225144437154,-0.6554443407992918,0.22365459972231916,0.8966682481955945
Walk,5,-0.2603526941246979,11.329148235655756,58.68670933442182,0.14315359325542232,0.06035456171932668,-0.17507567250437964,0.16235923380751213,0.9609573611064163,-0.5832289889778381,-0.7485476582715509,0.19302760500247232,0.965520624795673
Walk,5,1.6814558001662663,12.577387372269003,61.041482055091095,0.04297644919470709,-0.0073166516052231255,-0.005560998861924399,0.1957927907094017,1.0485728407781276,-0.3072396049013757,-0.8318500011930418,0.294905741569743,0.9694950955681068
Walk,5,4.902350502639262,16.456233489073956,76.92244498916531,0.10019953983329713,0.018634123957669283,-0.0719954936402825,0.2861499718911983,1.0681381859144436,-0.5819254107729763,-0.9568782322801588,-0.126404582082037,0.8666189072013378
Walk,5,2.0925804000520376,14.091476490311813,72.75044189509691,-0.03760260052696075,0.0068056171769172455,-0.012355796440755072,0.21564662235591348,1.2383922010816197,-0.1865017878054951,-1.1080723662041594,-0.03936175294587488,1.0195618493147958
Walk,5,-5.301564579690408,12.465110738822377,77.2915725023431,0.11178455501590137,-0.008044920293527722,0.0625672415887341,0.09750741334350474,0.8931339203373931,0.05421629953722282,-0.9750859213016493,-0.0999921117872486,0.8596670557572392
Walk,5,-18.452169662072613,10.570704036650753,94.85856196782396,0.010623389105087214,-0.04411776304751091,-0.014435217771489576,0.07664212244569703,0.8699074077251778,0.25428667260699694,-0.868304472756793,0.20990183841975588,0.9967030987387404
Walk,5,-35.35994287491108,4.50596104728413,98.63323939767923,-0.07208000445660949,-0.023595846804210507,0.14576893234464539,-0.06550065342006987,1.1215888533058456,0.4578062801098328,-0.822475060618609,0.0014007476318643325,0.9561258824600629
Walk,5,-43.69435081633131,-2.327744837503049,77.08133834190426,0.07464823383128379,-0.1459698075559981,-0.0733785814572521,-0.09949705113577724,0.942615827860178,0.5543553679805359,-0.9904264208938466,-0.047922364834370484,0.9614069659698279
Walk,5,-61.666274668904,-7.893709384747115,81.72570296865193,0.02798123099681705,0.024873233798176908,-0.03781866549196317,0.07089377598612209,0.9627475972376435,0.7770436121945297,-0.7496921419258692,-0.011838025649612768,1.100850434989701
Walk,5,-53.90261605757993,-8.903785019344555,51.71621711808063,-0.06223281736292957,-0.03026953227013826,-0.040085153066597615,-0.13071711438470257,0.9934477638404094,1.14606469939729,-0.6380482688599933,-0.03807247858414949,0.9050661573160408
Walk,5,0.0611931631357589,-0.17968786749713794,-0.01692659226724681,0.09001759368549178,-0.08580582734777586,-0.01870972694788572,-0.004748657424197753,0.8757010818825884,0.9901576395145635,-0.6548914063280932,0.0009314040245095717,1.0554443261863664
Walk,5,-49.568663187424264,-11.132250815741678,19.519427052942824,-0.04130076528528662,0.14226489025783892,0.030860958061763474,-0.06962260222256184,1.048329862204609,1.0062050388042696,-0.29851709417398187,0.10816088517720747,0.911111869239265
Walk,5,-30.126466625683623,-9.780919833426742,9.107039812413264,-0.00799713218844318,0.12542830756384776,0.048305433235975845,-0.15751170681460747,0.9953247016597792,0.9694959317071684,-0.1722990252722264,0.12921209287857843,1.0584970227333566
Walk,5,-15.1484817903993,-7.623656524191365,5.686737903626236,0.03914204674524435,0.11049664865646072,0.02565568688859578,0.0415586538745718,1.0862082438809784,1.1507683607098578,-0.027388554681368225,-0.018237095414102705,0.8601110464216313
Walk,5,3.346626242274162,5.016808154518727,-6.1387502619194345,0.49787566720366844,-4.337849068974903,-0.2077593959170589,0.040715110032716155,1.114356874645052,1.1808888438461342,-0.040726879806204805,0.19787462272534917,1.0584486183394608
Walk,5,6.477928182091999,-1.1626628177794631,7.473961791469871,-0.031354771898584356,-0.30045136757474883,-0.05232721337805886,-0.09298942445530206,0.8865528249180927,0.9550296485831209,0.16114530020710707,0.08764190279791871,1.0337501387154449
Walk,5,-0.03681629080674852,-0.011028760610385442,0.019252262148909037,-0.22120817168938364,-0.1332985711244691,-0.01106997419830009,-0.09941007683589077,0.9363149941779586,0.9556333144023176,0.17819692392653405,0.33286126997389365,1.1071128160335297
