Set,AnimIndex,AccelerationX,AccelerationY,AccelerationZ,GyroscopeX,GyroscopeY,GyroscopeZ,OrientationX_sin,OrientationX_cos,OrientationY_sin,OrientationY_cos,OrientationZ_sin,OrientationZ_cos
Spin,0,832.0067460140447,-330.9255938366977,-8318.28479875755,0.2919109429732719,26.716151430288686,4.57797889906345,-0.04513188933326662,1.0773987212687042,0.9899941755580682,-0.10182331163964994,0.7637359710099594,0.6238574340803442
Spin,0,-826.3317480889083,340.09796564302286,8155.352435903472,0.9363346582037559,1.267908325743873,0.14320959118892423,-0.24422383336113038,0.890893642696458,0.9359533752129113,-0.2561364190170709,0.600621341125508,0.6698601820265071
Spin,0,-826.3494880759059,340.0628644774038,8155.1861838602445,0.9837838513359294,1.3718949307658117,0.30071469331685186,0.007719231133854837,0.8816405687332598,0.9826238003735613,-0.21630044958133868,0.8084275538618801,0.5837576714837099
Spin,0,-826.2732082797824,340.04568185256716,8155.300079308507,0.7544813192150662,1.250697070643037,0.4215346704113883,-0.19756159082979574,1.1289349914396085,1.104569538197179,0.0023021197690765993,0.7189408755720074,0.6623836261204471
Spin,0,-24.479053870005842,-8.094092645003029,14.245496845158325,1.4314705067927211,1.5412793226020447,0.3585961682757031,-0.16181140121131538,1.099808684575975,0.9027518499205109,-0.14818858170587498,0.7858689701400282,0.7635454098111565
Spin,0,-24.21304752210912,-8.162559607150255,14.455978303945303,1.2710606305206187,1.6271830230392592,0.27990711230853094,-0.25388585290294785,1.0697373886680355,1.040382740398509,-0.17142019617141083,0.7571742516964152,0.9264096940770536
Spin,0,21.759471342123703,4.197450755332369,-10.864142701726397,1.1304630490678318,0.7906196065679182,0.2780215211421604,-0.17787399869059733,0.9149673860374907,0.9902986036507512,-0.3250578893260269,0.7161780286617165,0.5724832737343976
Spin,0,21.765870681031664,4.237279065053986,-11.077302461357526,1.1030519626784134,0.6653978088105982,0.33420746046413796,0.012028760324084287,0.9508807668102192,1.0943900457574758,-0.15892651058387147,0.8905547632474315,0.5382132228893765
Spin,0,21.910724208453296,4.163669467445534,-10.787447055015784,1.139819108065586,0.7041912986525525,0.30155945293354747,-0.2309335316818502,0.9811944710506049,0.9986480894232956,-0.1544414482923697,0.8729188794289049,0.571781280169406
Spin,0,-18.177254750596727,-4.036351927476761,12.016800410681745,2.1039730399250707,0.5501870714198285,0.35267715962047574,-0.09768259104231553,1.0348089793457411,1.0335754909890973,-0.24394794368881634,0.777192333987365,0.7168490537541095
Spin,0,-18.134543823361973,-3.8911755544635938,11.993274863240995,1.8214951253362104,0.5373905575207241,0.07473533877631022,-0.10327586251707316,1.2217385554827684,0.9595563594744466,-0.3886829453870863,0.9324106211815426,0.6218413416430603
Spin,0,20.213449344366698,3.838876984901244,-12.967137114680105,1.4982805872329448,0.07070586163317083,0.006931728304217816,-0.2743599091582179,1.13936740705401,0.9373764974031829,-0.32699900344938926,0.8595123200742673,0.40430429624409303
Spin,0,20.41424048092464,3.6595283084373884,-13.03730378791072,1.5215017632166308,0.12969432082267504,-0.0995700099472336,-0.24511162269573875,0.9058377711507573,1.0102001546983768,-0.1589389964634505,0.6595025831793455,0.5231189680381987
Spin,0,20.143457429315127,3.7178762107311214,-12.976750556833519,1.482395662277743,0.17804754259880556,0.11958110030619723,-0.4434781459462833,0.891232376195144,1.0006427393590518,-0.1777000672611364,0.6916952223083428,0.8102007639592842
Spin,0,-37.15625363380863,-4.150166521951714,5.428216561131008,0.9497083604781482,0.11595282446721743,0.7843676175321557,-0.22240782877480872,1.0759644192285482,0.8690559691758476,-0.20314136161913807,0.8617163993114478,0.5275871275886391
Spin,0,-37.22208165632094,-4.073778010296878,5.546263605278655,0.9956059706669651,0.11640237960926447,0.9960702774010597,-0.18600539166242133,0.8124060052690223,1.0732033566037522,-0.15564120404512016,0.8644851213027176,0.626751554029419
Spin,0,24.01671085199055,6.917867464857721,-12.917878854755227,0.3754915291460542,0.4135424156804516,0.7138916414978568,-0.16124407718641184,0.9711026955939422,0.9474928232651877,-0.2149730553122019,0.8079023340856,0.49280053543509367
Spin,0,24.024395666800334,6.991858745943806,-12.643576027162574,0.4478305675683588,0.3182569359691213,0.8110883598249589,-0.2896340423416515,1.0024093959981781,0.8078716825573717,-0.10343415259879536,0.8746747983988551,0.5845524983190624
Spin,0,3.44579006117873,2.609812389195966,-3.522562413644615,0.08820256147753942,0.6166453893545,0.8810621697033248,-0.1542239736855363,1.006751564943905,0.980435489385674,-0.18590624137317768,0.7677703172425485,0.6929018993800599
Spin,0,3.408802876676649,2.531514826975777,-3.466565080320439,0.14153886930479048,0.7478031248680587,0.7368472085977479,-0.4180446843993206,0.918272797235978,0.9495270055278888,-0.3691935114073535,0.8408230004538725,0.4697052297701435
Spin,0,3.4381378163094074,2.540154357700357,-3.4677327550109296,0.23126913901289028,0.7034026590278156,0.8846846227993568,-0.3776861746321297,0.9934546940315173,1.0794304517421045,-0.14977401517604505,0.9075657632998689,0.49981466181160517
Spin,0,-49.4890306560686,-2.2443814305776506,0.6088238808825054,0.05253833800881013,0.8760882413411124,1.563142027534717,-0.32695724652255326,1.0033907784185172,0.8646809207427469,-0.37704924705113724,0.7585464892067396,0.44608656008976055
Spin,0,-49.49818203733452,-2.352716417105658,0.6528733842167502,-0.19342444641078588,0.9979488711176072,1.5371442117354563,-0.27202289509198,1.0337360482194793,0.9380261898939463,-0.16624044858182196,0.8654205828523474,0.5108362150779575
Spin,0,42.75546833411676,5.215276694693033,-11.901201947407056,-0.17161640072708195,0.5244521513343362,0.829662997853319,-0.29483507936431474,0.9661263958616725,0.8167635803893791,-0.18933725492268072,0.8529926331492186,0.662464137914322
Spin,0,42.93015091469742,5.322099728962384,-11.73157588887979,-0.18651455942809914,0.6881891113973222,0.7551962730753622,-0.37600214083596617,0.958145745407052,0.833092012514579,-0.3040244074149808,0.9662833060056324,0.7434974635158996
Spin,0,43.007526827015376,5.261031007569073,-11.965677416470875,0.04125075613050157,0.5911928466555789,0.8104766711181489,-0.23512803053470183,0.9404775363549562,0.9853256240021868,-0.23249186382935758,0.8278034330548474,0.6825949439791217
Spin,0,-42.84939534260427,1.5817323484978552,-19.849564651028114,-1.1647562904080373,0.7038481115696835,0.21302005813815633,-0.3466717161818653,1.0213942567940473,1.052388317781459,-0.1980353203867054,0.8081404881341667,0.5827118675144222
Spin,0,-42.83938668125029,1.5371298947560001,-19.858801257407084,-0.935010928196438,0.5791789456851747,0.156692701581013,-0.4095767964985258,0.8926079804831921,1.022272691577505,-0.3905115598688981,0.8567452300327845,0.5711282170765388
Spin,0,35.05377282284883,3.1412127965659384,-5.058262585857579,-1.218787530122221,-0.04838702222907901,-0.16440509621427468,-0.20624454693660793,0.8911384998106142,0.9600428797949435,-0.21918093128895266,0.9324353314350116,0.5003754406333077
Spin,0,35.11995085808492,3.00412144208127,-5.037458977364208,-1.507512428080592,0.05111870384447179,-0.2117697250805075,-0.43624426487418666,0.9468486712633234,1.0922238396227506,-0.2724216363251963,0.8034085000222211,0.5677874553727652
Spin,0,0.8989042514410239,1.4515639219210918,-8.402176810348887,-1.814168351433839,-0.16403354356119815,-0.36268089880692017,-0.22564711064343812,1.0498438144675855,1.1462067880409679,-0.2344784328963831,0.856295714565334,0.705947534650311
Spin,0,0.7090771939412195,1.6980616965398223,-8.190963542669525,-1.872065073613785,-0.31594974757958033,-0.41323516761173723,-0.2410620793723136,0.9346509644351673,0.8294772092677165,-0.2541804491068332,0.6973342735587924,0.671222442387065
Spin,0,0.8117956041680665,1.53562847706886,-8.263835544770663,-1.8416735171344705,-0.2216876172734828,-0.3941920760412823,-0.16052785252791962,1.0143767917900393,1.136838444453362,-0.27624737393066695,0.7221370647671405,0.670005569033379
Spin,0,-43.917044978159,2.450429378419905,-24.27760728104446,-3.3937718046423755,-1.923892617253906,-0.11547046843981533,-0.05491364208169258,0.8484462809303177,0.9962668994339201,-0.3137615751681439,0.6179000950944381,0.6119211712924651
Spin,0,-43.83712082522958,2.4568160458371557,-24.208403548573557,-3.5568180584436786,-1.9449688241884557,-0.04580324986569817,-0.38769560464653363,0.8581093015420205,1.0388412413674433,-0.19286944474042894,0.872822643641017,0.6303852274847157
Spin,0,49.8100308183256,-2.084741809560256,18.29613455508026,-2.016432626509509,-1.3593204295944046,0.153983297663964,-0.20481284068689729,1.0352041157662375,1.0686427030488848,-0.13812676692705766,0.7120459717977687,0.744441800445952
Spin,0,49.64583245123373,-2.204844395929635,18.333229181077378,-2.368047155800121,-1.4144269741613946,0.20783341237485356,-0.43284671698865823,0.9746841029630247,1.1098914504269175,-0.3787501939862735,0.7561836373029794,0.6540169969099254
Spin,0,49.58042676739341,-2.3536324163778235,18.1031263968654,-2.246369345254926,-1.3561002066504855,0.17520650225468604,-0.04275284595780404,1.1094556648592764,0.9449726008679652,-0.3325455535429719,0.7230225588617336,0.6305954806887912
Spin,0,-41.39756697364703,3.7913290352231,-23.8990622675334,-3.4280178186254657,-4.626661591869347,1.482737051915084,-0.250988662473659,1.0174371130571909,0.8291446003914311,-0.3270204697963248,0.7070305580959432,0.861430327266729
Spin,0,-41.651865560947684,3.624726159637603,-23.58558066525806,-3.5274545151373506,-4.619310185762079,1.4802935430907727,-0.17337025598359912,1.0086858455151038,0.957193823801789,-0.2312042010768242,0.8026441197566135,0.7650309306782355
Spin,0,41.53866845072228,-2.5942111644350234,15.343631374646286,-2.7325324423451396,-3.7491583669708137,0.598890972852957,-0.35563584095389167,0.9031981361670074,1.01999821068695,-0.2755023364975494,0.7425631095347754,0.79578768536719
Spin,0,41.380666275424815,-2.4175625502513136,15.465693027525361,-2.5044396634104302,-3.671801948862738,0.6718576061253708,-0.2730012800694781,0.9381074021194494,1.0741517509095793,-0.27614782734474574,0.557924225138717,0.7308611693396277
Spin,0,3.6349179102255,-0.5346630967691268,-1.4981157487795462,-3.0769108226653885,-4.264184700815156,0.204808156989079,-0.15644085773192778,1.0470439641151632,0.9729919271172398,0.04597848029805695,0.37912727431399496,0.9081393624779095
Spin,0,3.8390110273455633,-0.5133438660326971,-1.557661381061374,-2.8968202677753467,-4.169035724783855,0.3971350479240614,-0.15082513775236722,1.0032887024368022,0.9640117283796897,-0.045361164431842876,0.5233154391853607,0.6609522311676855
Spin,0,3.4175490369235795,-0.30081730940847906,-1.354702414338911,-3.086820914599783,-4.317799527641267,0.264129189881814,-0.08540882616049425,0.8249162305074902,0.7982064705827039,-0.008695075513978641,0.5769385200015351,1.0381788959804141
Spin,0,-35.15934111095361,1.6282233746161983,-22.820728184391324,-4.458713775589843,-7.077299635536318,1.0682512722170272,-0.21370047011056634,0.9113425810143273,1.0175133756543533,0.10244011722169535,0.3178171545454217,0.8183124310179108
Spin,0,-35.26565158965338,1.7119872374221232,-22.7677576967799,-4.523381723851557,-7.20978556049151,1.1835570690697044,-0.2820186700439852,1.0075438738615177,1.1492297880295816,0.05522733636420428,0.48610733088054514,0.9341654098838621
Spin,0,24.283170396577372,-3.799577359882672,16.517312964858018,-3.4185805897938772,-5.449159066136437,1.0192386953451633,-0.3423067375310665,0.9610120814805722,0.9127070017544665,0.06799321436685477,0.46908626057981917,1.0520028601375941
Spin,0,12.014445203974393,-5.250688481390502,8.477609942363397,-2.8296874340603475,-4.268291110153655,0.8358105064681366,-0.16045267093501953,0.8216135684098935,1.1379697947268428,0.13125290444334548,0.35808095549994184,1.0502596933603374
Spin,0,11.877307203295409,-5.293521005181171,8.188671602128979,-2.878946061343847,-4.378378154700158,0.8133753890225148,-0.2956854859882207,1.142030935440174,0.9819300667849381,0.2734024614699651,0.3102680056814104,0.8165080923680169
Spin,0,12.003707301668829,-5.209135188775471,8.486631560990308,-2.662062858064869,-4.325463206518104,0.8564676667080189,-0.25657336023613303,1.1789427132319819,1.1160395056608463,0.44478574896067763,0.47275825410666844,0.8124367705243574
Spin,0,-40.79196270504118,-12.874202935389096,-20.025637544345813,-4.808530703108046,-7.530709740366978,1.3329422332444567,-0.39200684768983945,0.9724006758030334,1.0613103685096987,0.5524783594635608,0.3307920310073384,0.8408447226602218
Spin,0,-40.7559877733941,-12.766834825896428,-20.027604698108224,-4.909268205753145,-7.735594265376858,1.427294697004072,-0.3793135803920267,0.857173461764986,0.9794405393132826,0.5008560780470426,0.4224995482092194,1.0504414408596319
Spin,0,39.711325674993304,-0.3610817104805048,26.886118069996453,-3.2809372179067506,-5.118677585130498,0.29471701452186905,-0.35328961449968094,0.9042254446657377,0.8317213622662952,0.40644527840575534,0.1980104943753702,0.9891231443607252
Spin,0,39.71759029033251,-0.025903882473108847,26.697798044407406,-3.1305755593941287,-5.3431787707308915,0.4868709243383923,-0.5235368855306551,0.946146278663441,0.7537519156366134,0.41188428464153015,0.0507032043835568,0.9453802135874589
Spin,0,39.71991960549596,-0.29886945595781966,26.627550428319754,-3.255698806906333,-5.084342639747772,0.38456041775137195,-0.542760352590429,0.9259575624919087,0.807477619516996,0.3795124746206065,0.1175613897038521,0.7783239160403628
Spin,0,-17.9702299906958,-6.232458995764643,7.096496414619039,-4.042670956345292,-9.153181772126759,0.8184696685877677,-0.4289617025976218,0.8256359715619641,0.7987656447075528,0.5307796039136873,0.04452580057478504,0.981295059612656
Spin,0,-17.817365907330018,-6.247016790242912,7.328023266903353,-4.382225633353539,-8.988722523072221,0.7284313438135601,-0.32522878907896774,0.8930504671588245,0.856801787638266,0.618372794842955,0.2301130518917966,0.7614324454611863
Spin,0,30.20064330333043,9.542403166344887,19.619171147063565,-2.549204171780405,-6.837263557838798,0.5884656451350757,-0.46612513863373145,0.9449006849123527,0.7051080663347223,0.788076414914163,0.03760911430372651,0.9489349426627798
Spin,0,29.91541192667494,9.500915315269815,19.865526277094638,-2.5983690418559986,-6.661510236440264,0.4614679298072106,-0.4447443321511103,0.9362567535800699,0.9315796884236496,0.6132696996324386,0.11473166599024497,1.042151556756497
Spin,0,30.123729676550425,9.400177596901125,19.77236895823646,-2.540384594664385,-6.777888469470692,0.449521752724293,-0.2599626804536721,0.7752283480564529,0.6921454327650388,0.6435175587124489,-0.051086752671938046,0.996586897417616
Spin,0,-0.926121923720674,28.82117501284777,33.97467446858256,0.04541485843419901,-10.21279022513834,1.8835176160778802,-0.47857750233074486,1.0611100351433016,0.751789498085266,0.8873428019853066,0.14833825291270536,1.0109554439397155
Spin,0,-0.9947797472009381,28.870245555464717,34.09797884923768,0.22180387684460517,-10.32504183035278,2.0454791817992977,-0.5174688911924664,1.1299917038888414,0.560987898473323,0.8986961826267169,0.1033483231148509,1.0788463538626232
Spin,0,11.505743066733109,-1.1387984297370448,1.4411086603979655,0.12464366440855736,-7.001579499214218,1.5766292207776704,-0.512634165040669,0.9148880033486919,0.6942959610756829,0.819926448479362,0.13391657537703167,0.9591543996701193
Spin,0,11.317991441494518,-1.359233931299695,1.3115756687707876,0.05533952119695911,-6.6490658311592545,1.5086745423847578,-0.4862198918947359,1.0410748076918304,0.3423541851650737,0.8403382160852884,0.27528727281389603,0.9329462235109733
Spin,0,-7.66280628345493,3.820029287451946,8.763817845645155,0.15060216097853502,-6.981434796813428,2.08145335349869,-0.506549742170326,0.9031254681673725,0.27932742945482875,0.8766123953942543,0.2418373067950927,0.9849553625658793
Spin,0,-7.686084879678211,3.859307194758928,8.896665069305577,0.16752209144625968,-6.848316541298537,1.7494496222895273,-0.4973379911094862,0.9329915403754938,0.41636556137057734,0.9225497962018498,0.15461802815981754,0.9655285768378427
Spin,0,-7.538998370751453,3.764294453250237,8.855086056578356,0.15308748103568137,-6.792113387413002,1.9079221272150417,-0.5261385090046187,0.7846580808393876,0.380746417043399,0.8491173312699839,0.1658320520475629,0.857596743434762
Spin,0,-45.567643906459715,14.186004710308948,19.755197836379153,0.4165120933589209,-9.364734743535646,3.448942167162015,-0.5393264141983369,0.9598894317040167,0.11981958385819888,0.9738414062733945,0.4392150801673245,0.9700742431182715
Spin,0,-45.622530185078,14.139916269530682,19.754241729176197,0.3038136158865214,-9.382646842128015,3.517890662375862,-0.5502744171131387,1.0103645490963586,0.08616234087680756,1.0062503010174264,0.3313695172636439,0.976044098693832
Spin,0,34.03004905735438,-11.223898165764037,-16.7951762506289,0.1011916370167898,-5.876357674273997,2.3407481666283756,-0.6957140287196039,0.8171368175571109,-0.077123088237425,1.0309818907901651,0.3275782501090563,0.7778789152873646
Spin,0,34.24516662095626,-11.329262557665922,-17.068915762962842,0.15445545898188517,-5.861174449438705,2.4514518475736584,-0.47462076116002755,0.666037869108214,-0.16197927698170417,1.0661037818103911,0.2802999696537479,1.0576020104197295
Spin,0,-13.335905725524912,7.186231598819744,0.7487347991615336,0.6092273807328257,-6.116748849826192,2.268617620049075,-0.3670737249912246,0.942479369525229,-0.2741931105588676,1.1312978688332573,0.3411138081692926,1.09130097503216
Spin,0,-13.357729493557878,7.219125922275149,0.5566704022806604,0.5577787481017596,-6.086630254703257,2.0142582144308014,-0.471968305807526,0.8750456759102369,-0.18643132703002552,0.9372126646477158,0.3658928824829753,0.9664287234327472
Spin,0,-13.253306606250122,7.327400460982462,0.552567624736676,0.7910856420808428,-6.06142345696323,2.1665176678434293,-0.5193083649272338,0.9175378957114635,-0.3096730535522208,1.0486213940046554,0.3531869161499593,0.9142090106051456
Spin,0,-48.301010039336624,18.780839417832983,32.97634388081858,1.9166777559787378,-9.753703490892233,3.5343885986645938,-0.6355622676370245,0.953787010992284,-0.2705861441350875,0.7063352231597557,0.5778937898360927,1.1842639642338764
Spin,0,-48.510625135083544,18.59756413460243,33.02528823510005,1.8776999060753379,-9.79141340218639,3.5564988791283123,-0.39490939547197834,0.8674203039563815,-0.4857882021503036,0.8265001437750485,0.34067828795204674,0.8924501529473016
Spin,0,31.308788348857128,-6.1679871606084085,-15.898247641965602,1.9090889306304042,-6.928949416873194,3.0180414128447377,-0.31808284705779466,0.9369256666329512,-0.5759637750756331,0.7693718048053978,0.473660553960035,0.9315896625789518
Spin,0,31.47906327161647,-6.191182210561154,-15.924874241508885,1.9682803424681237,-7.035810315536329,2.989717742821943,-0.2392553458436214,1.0150415887501842,-0.5265356542261873,0.9218193752502424,0.4524272046494296,0.9468551321619282
Spin,0,31.382201496152774,-6.222707308314083,-15.902919914130473,2.01999393442299,-6.843663601868399,2.8113562824377967,-0.4892576357800735,0.9198007853657444,-0.5907225853963511,0.8960113580192636,0.5082566261519698,0.8973872765205706
Spin,0,-69.14563763411724,31.832242070687556,38.33271319579108,3.8492073920812326,-12.011564862751927,5.975771486217157,-0.3398137766871769,0.9110834344656468,-0.7620301932708488,0.8107784297662853,0.5700345018894438,0.7776723385173016
Spin,0,-69.311038181643,31.963007376473847,38.26480902795415,3.7725513255257326,-11.878167118727953,5.91480203423674,-0.5309283168289376,0.9127000073308744,-0.7250381396980311,0.5082749109133374,0.5210307036207931,0.9687531138636147
Spin,0,38.81107505264003,-26.361692440903578,-36.596336905377605,2.3806269404191234,-8.450868514174859,4.656571870252024,-0.1476531886877156,1.0503704253068138,-0.7020153270202895,0.48024026256422037,0.6061728201357948,0.9796912859359628
Spin,0,38.82693705108749,-26.550566149691996,-36.52512002080283,2.324302084118514,-8.666140556596293,4.560400541259446,-0.05247860883626046,0.8560929789169351,-0.8573408931960199,0.3219225060615179,0.5973833656405132,0.6897355926239184
Spin,0,38.83795270800173,-26.51253534163064,-36.734581796337025,2.4685295701323726,-8.657585204561858,4.510486301672804,-0.09099476222527308,1.101230917447311,-0.7812879195258005,0.6119844177596853,0.6467363955573694,0.8015919876391624
Spin,0,-102.23937980601434,19.776379393184367,7.717121427418656,4.39820430007191,-16.698530034775995,8.256064261003567,-0.08881563237345763,1.0927124069408418,-1.124770541403341,0.2971110769511869,0.6549250049291698,0.7743731213173733
Spin,0,143.54206723643767,-50.2843558320089,-55.91639319946494,1.343259646369137,-5.948413177541712,3.116431330361765,-0.054888949463991185,0.8630983701330717,-0.9415489347637948,0.10727526446160693,0.4960280871485013,0.919675959676811
Spin,0,143.8701042635132,-50.30036143897216,-55.84136556210025,1.060061555963064,-6.064482997603025,3.2299056260072723,0.031222751910347867,0.9238555963582226,-0.9888495258569735,-0.12893231658448534,0.5064737530261945,1.0750339186972626
Spin,0,143.71132872369867,-50.166808784837094,-55.89047707211071,1.1726100278696545,-6.009845272081573,3.0399616068464654,0.17064893694702893,1.0494351092244467,-0.8792207124047132,0.05100909299988943,0.3682387308240886,0.9071444622864194
Spin,0,-147.14910443936836,-3.2218020872244684,-28.807581121124713,4.5841702397541635,-18.512773076798187,8.9599055842755,0.07295677107401902,1.0731620041653491,-0.8592945497052061,-0.18903015124603106,0.3760072971141425,1.0236924773024012
Spin,0,-147.22514142579035,-3.063697129786414,-28.566987345090915,4.627620465847422,-18.4089556539864,9.386245885675995,0.46368168889910866,0.8459892675645688,-0.9103432324217368,-0.5513147865157784,0.4413683813585919,0.6893792612583577
Spin,0,-147.17563531525494,-2.9807456358975433,-28.55235720763551,4.702206103723818,-18.412534186224494,9.049176170896663,0.3209375089057651,1.0084195735395494,-0.9515145361263996,-0.3220213051677965,0.47973025379702516,0.7286488559690705
Spin,0,40.50592237259718,-27.759859122138423,-69.85613130478983,2.6864363293546907,-18.764835068278952,8.424329751219851,0.4628665336476979,1.032426461396335,-0.7147031968089944,-0.49078565145863173,0.3909211522306568,0.8200318483508289
Spin,0,40.50597990968195,-27.737841670206464,-69.82112028774137,2.3526667113482875,-18.597762444820997,8.553163064381954,0.251190558999364,0.8753247803427018,-0.8868509439439201,-0.9005936730981772,0.3535574151011883,0.9064420226092103
Spin,0,97.47863224157068,-5.072517986751843,-0.8044475593637791,0.5827322293491664,-12.274497875490738,5.049431242106997,0.3359817611186575,1.008658558765483,-0.420182591213451,-0.7457398449568813,0.27396977077405077,0.9467562285650472
Spin,0,97.3861960591962,-5.166997363538646,-0.5849679168363336,0.7266041854167188,-12.36028108108961,5.340088889804191,0.3452038566360736,0.8431359227411829,-0.728161883100459,-0.899056646497413,0.3472099873389841,1.0143965152572003
Spin,0,27.277173723366953,-2.737040677676333,-6.915059299620314,-1.2306977461682775,-11.128492240216884,3.5402263164365464,0.6496830075248168,0.818418111166306,-0.35596455146802264,-0.8733886069094597,0.3406791719580827,1.0241696717040423
Spin,0,27.290747250222193,-2.6212091966059674,-7.03196312139808,-1.2931701105104623,-11.039542359781267,3.4415294772312235,0.4604806799304211,0.9565378792681318,-0.28214855046591136,-0.8178011732389048,-0.00947381688272747,1.0148498439946585
Spin,0,27.290959323226915,-2.7525270017526853,-6.823150242640956,-0.9705554948974171,-11.10241284715861,3.5485261461815423,0.6013893303317853,0.9119560068838398,-0.3033399235534764,-0.934461108727825,0.31150303156141723,0.9119192032225956
Spin,0,23.241543643773845,-22.48341918380243,-56.299158403075914,-0.9954733842941278,-15.661390495592196,4.841117071216931,0.4927840813007144,0.8914792884357722,0.03391013087516858,-1.0115838565704907,0.04915143207161382,1.286715383354827
Spin,0,40.93673596815143,24.71247666955896,75.55903800792862,-0.703577953869668,-7.0873870179992045,1.715185431979017,0.5446835142196037,0.8682944352408303,0.37414143337458694,-1.1251088366841775,0.12080978377656709,0.9140863274619585
Spin,0,40.915059994578094,24.687953057075024,75.61431650195134,-0.5732827668413399,-7.087685984577676,2.112935067776995,0.5636432655198734,0.8769960761942266,0.24506137620018797,-0.7803624478061115,0.11173255923084624,1.0819641784533474
Spin,0,40.679595731819276,24.966916471271215,75.54898246596696,-0.3855067342331133,-7.3315565539767755,2.135250094562087,0.5626504774861878,0.8288174717526918,0.31531243562216116,-0.9123682935265089,0.06828539145973123,0.8428294569588513
Spin,0,26.269255064770697,-21.995248088123237,-36.80250196685325,-0.6607287662762653,-12.739330221722264,3.459357276154012,0.5064312081001545,0.8447359662196727,0.4386630942445098,-0.8495670044322752,-0.037888349230637705,1.1494575729547336
Spin,0,26.288146113295557,-22.084397930558247,-36.9385842207768,-0.7192846527303902,-12.72303502157438,3.8198538078063233,0.40461941420363245,0.754698065590508,0.47519718803906713,-0.8233230908480079,0.06870976349724728,1.2383558557017986
Spin,0,2.4667143370272386,18.987641690719457,61.112775053896364,-0.6364658307653106,-7.01287994187587,2.0447258365796213,0.4820807964723275,0.6370857639815595,0.6180489653487876,-1.017763650864589,0.05746752093610125,1.1592603283082947
Spin,0,2.4715647791702144,18.93009178823988,61.33017911949976,-0.46034430202551524,-7.030086928636596,2.1594920420771184,0.47374753594820185,0.8710428563856151,0.7275404278083177,-0.793238171749297,-0.028428576797792895,0.9861005816259273
Spin,0,2.442265864348583,19.13227017003436,61.264984467186444,-0.5333065784932483,-7.201670584661562,2.075938260590028,0.49465347631690954,0.8353702756621477,0.5540396152259592,-0.767026705749923,-0.15012045757586154,0.8615256694557346
Spin,0,10.845061729095745,-2.259157041425223,-8.977204466866885,-0.6174878182983609,-9.454613769909933,2.87411969306496,0.3784572330183522,0.8640872867770232,0.8255378766439283,-0.4648025550439064,-0.022501467938753378,1.0483845639785558
Spin,0,10.772184368250429,-2.3615686694371547,-8.929410438006759,-0.6872162541848048,-9.33325038404044,2.7366807906019757,0.5630377187313972,0.8030239815904108,0.8683230596469949,-0.5817847711218188,-0.19372213101739122,0.9637865403339575
Spin,0,-5.207734758423182,9.465918441905313,29.391267456036104,-0.6767920980760209,-6.007419241382369,1.6238634324880916,0.5863901648727996,0.8609327487898151,0.9199663743075064,-0.31765865037976093,-0.28579320790549445,0.9147079347301007
Spin,0,-5.114805021350706,9.582560208404237,29.579282399593747,-0.5996487547765125,-5.987013889339546,1.9559839643069412,0.39076469340223063,0.85888720996818,0.757676326418757,-0.6881570907554241,-0.10797653617290781,1.062667051392892
Spin,0,3.658794652873005,1.4368763630274526,10.650493069075761,-0.5185335044857823,-6.518840299369763,1.8233493320537777,0.3974383925322216,0.7876992555390351,0.965840987883315,-0.3716867713725578,-0.13590774824912355,0.8989576494436111
Spin,0,3.823691433417459,1.05756596688405,10.540911421167431,-0.4905995994850462,-6.470168107085702,1.7654009430061868,0.28126433918176985,0.8660768341505406,1.1285215230175418,-0.4679947942902987,-0.10781073699396855,1.1732300079502358
Spin,0,4.002960724542334,1.059211103332317,10.420621277720269,-0.6256490292202785,-6.389828279334639,1.9993373100244183,0.39425271948878016,0.8667712019932742,0.7792710701312792,-0.4412012866365301,-0.1576636598141718,0.8804873644361891
Spin,0,-1.8604354924231508,-1.5662026699144092,7.649346130244655,-0.6887365561996703,-7.804107294745048,2.3297551441614526,0.6075932918588238,0.9140684023167253,1.0169614919307342,-0.06673257557533546,-0.08103294740644981,1.1241291711853103
Spin,0,-1.9271056705356802,-1.552266998345833,7.7051888579751555,-0.5966127579847674,-7.864195011260014,2.3508035106732144,0.4527157662068113,1.0052728903239927,0.9540863359483422,-0.3523452416603484,-0.24010929923141208,0.9941692495391653
Spin,0,-16.87904512873937,7.886779533168553,13.276779368340728,-0.7316630789263331,-5.444458364094508,1.7448613690179715,0.4047376825357372,0.954087658550458,1.1339210445243382,-0.04291315352714317,-0.2353265336146226,1.0876464680340725
Spin,0,-16.69741649875246,7.825888661581962,13.222727316624319,-0.6753013688284681,-5.6064815665492995,1.7592020886092286,0.5231796017188459,0.8335003140107984,0.8725142103357262,-0.107715848457327,-0.18670271700382965,0.8421969911150298
Spin,0,-16.702432960540136,7.754296323071179,13.242238572808906,-0.7755207699191382,-5.417021216927998,1.4625753074116272,0.38399855748392214,0.9829626255984751,0.8944164918953061,-0.0266109322928767,-0.2865012529656834,0.9178751377155656
Spin,0,-2.238783301520917,-13.252775008149122,4.3429606641842025,-1.3204601627056445,-7.767878186751715,2.4195891471783946,0.31595934482741217,0.9275245827421715,0.9509767412038624,0.14076009914500115,-0.3864715575518395,0.9827721936655083
Spin,0,-2.1395174205577154,-13.25402436805318,4.154947572421754,-1.2244046413214125,-7.620832326065178,2.4493251482683345,0.40229235222201554,0.7624130905666886,0.9784313872037135,0.016879249470129573,-0.08395281104725255,0.8889325474436213
Spin,0,-5.1915854738036815,9.073790654698145,4.334163840751056,-1.0202280286787175,-4.899617235932102,1.7961325604561542,0.3176391653389201,0.9432521873392684,0.927040842347924,0.14638968411581765,-0.2734748910470678,0.9081281240098334
Spin,0,-5.11380127898555,9.025088625829326,4.215946549468818,-1.079184664361432,-5.186100539606256,1.6839032278519812,0.40700543213709495,0.9277948319484466,0.9512225881963314,0.19551015024983345,-0.26507174890273455,0.8959365292250083
Spin,0,1.92491360442907,0.9161345298080877,4.685400036964525,-1.3720749019611393,-4.819011872887421,1.8151932379738225,0.304616677791705,1.0781145680565194,1.0254908253140318,0.28392560185383336,-0.21200961914870112,0.882236911115784
Spin,0,1.9184583015648267,0.805550896642369,4.650542487413114,-1.2488494009172222,-4.836498829180148,1.5334225004021524,0.20995491663327925,0.9692497337343636,1.030981742160625,0.23074185996193733,-0.30023924017280385,0.9488304370592594
Spin,0,2.055268871373818,0.9038750812624471,4.728344650150945,-1.352184365417784,-4.776188436953541,1.5849699279699425,0.1268212410624553,0.8242148869507517,1.0199140659597814,0.42162469563570437,-0.20748883725995743,0.9909645972536729
Spin,0,0.7330205246915116,-6.109893891232121,10.757736677473272,-2.0392820861896412,-6.857250569120269,2.3136384609114065,0.1527404142214417,0.9521438035656158,0.9643016974558625,0.5241710441331128,-0.37376373334425267,0.9510106355017675
Spin,0,0.7945580818662611,-6.411670000055399,10.538225784245697,-2.374169160572022,-6.965865161607621,2.387456703431169,0.19365590553935996,0.9286353217363665,0.9087528507244723,0.47098500363207596,-0.23970872708437846,0.9044733105399267
Spin,0,-10.658869985767266,9.60624091860658,-5.309849820725481,-1.5484082820780127,-4.4190928260884945,1.859386559661285,0.1762080257315868,0.9832691010914879,0.9444912617900747,0.4696256086014374,-0.25808636119580186,0.775836753669626
Spin,0,-10.527162379285118,9.79266152411219,-5.403686824408806,-1.6774389688322626,-4.4645514163723075,1.7350546274870522,0.12139302634147639,1.0417684823482245,1.0131087206012186,0.4815140453790682,-0.2813732318209674,0.8130583348806718
Spin,0,-10.512490493435074,9.647867068178256,-5.428364103928694,-1.373711792785581,-4.438008816400297,1.6471062593202033,0.23620967616057997,0.8278956338508008,0.871556413808,0.5482684715386692,-0.33102747824370937,0.9430827686091036
Spin,0,-5.977594064693151,-9.778938392767321,-1.0970927805042303,-2.8320329248630096,-6.12296608629051,2.1780388938936848,0.12828384155220482,1.0321720761009392,0.8038229271035077,0.5887258052527439,-0.4634817024188629,0.7445747051881574
Spin,0,-5.86904646976086,-9.707130718287038,-0.8544733069619852,-2.795965764962721,-6.187950864487044,2.028217837468672,0.14986905135521852,0.9817352232890699,0.6999455092793196,0.7561196384344397,-0.46334463753433225,0.9144379955783896
Spin,0,-5.149054117343822,3.923223654571721,-7.325664094238724,-2.413136073183402,-3.857345858915836,1.0603462574751856,0.008660627421159639,1.053061477466397,0.7286663290696144,0.6686054555068038,-0.3569500668845094,0.9387300357170231
Spin,0,-5.025699360595975,3.858643376500088,-7.400826737115543,-2.463831897082971,-3.7712003398239875,1.0660336896378155,0.02184278193618848,0.966033532452359,0.6973765127578649,0.7552068536868739,-0.2969584894722819,1.046396873425218
Spin,0,-3.346658747104646,-4.7858799182436975,-1.3550573297674995,-2.9924821263584884,-3.8587285013325334,0.7129403186614338,0.05371577278128453,1.0322823432155683,0.5546762096389802,0.7839527448728965,-0.3639816851193494,0.774893560657855
Spin,0,-3.328484346060945,-4.837882784277377,-1.3151514605384844,-2.94166819983606,-3.9330089891252835,0.8477679811006688,0.04441497582808798,0.8534238457634077,0.6069496931894792,0.7460891494167523,-0.3692531402229623,0.8768620741727805
Spin,0,-3.3469506815874435,-5.017376547499013,-1.4314742431706775,-3.106927609636549,-3.8083607507988266,0.7611803417993261,0.11686079347938975,1.1050441256225847,0.6774014743341308,0.7332115601563609,-0.4344667202433769,0.8759477510552878
Spin,0,-6.744539792289416,-18.790983581885477,11.447048260701663,-5.660094733932111,-5.9911393621018565,1.1867774202799712,-0.05231120643654516,1.0422664136175972,0.47461185760447266,0.7009331714151077,-0.24895540454282047,0.9837641533375947
Spin,0,-6.713408918353668,-19.016531658584498,11.404884990895242,-5.569912018321308,-6.102000821147794,1.2187546464615717,-0.20842460146170955,0.9333174119047078,0.6262854643696487,0.8457747454848523,-0.46291261872632516,0.8888348927731046
Spin,0,2.346275250010216,15.71471561719501,-9.177780433032057,-3.701832050092609,-3.6809240021123353,0.4400738974112013,-0.1528312448290318,0.9308757967022203,0.4109196264302785,1.0256905306517448,-0.36989886579636305,0.9252261016544318
Spin,0,2.349529443681385,15.784339382239343,-9.071429541677443,-3.7994596602171598,-3.434269442057852,0.5538534910790419,-0.05672480709800745,1.0661999118420282,0.5208591535718852,0.7509539290502243,-0.4757266812323837,0.8077577531198743
Spin,0,2.3793613138660605,16.068983918005358,-9.005717800008075,-3.609132710679148,-3.3834003511527633,0.4885486044228324,-0.30969171966351733,0.8398454135562069,0.6395082369618041,0.6696154588420051,-0.3862294709173101,0.9706282617270945
Spin,0,-14.873598005820144,-15.011577134067949,5.305909099297509,-5.952107159861631,-5.890768451600348,2.0659633392125754,-0.15324490546501568,0.9173103475532365,0.5009302409741442,0.9875405919251279,-0.6658818678795115,0.9291684283015894
Spin,0,-14.984208035827136,-15.130674496102758,5.381437640063616,-5.865559373048789,-5.910380433946383,2.2250581532228026,-0.3638195689448964,0.8643634834007234,0.40420728862773,0.9730500195130238,-0.4691129379475496,0.7978956418608439
Spin,0,3.4349827792895176,15.079012798980724,-10.980847153588888,-4.138796990257268,-3.851760552518596,2.1339458444115906,-0.3292873439284753,0.9813299412450837,0.39920901927365776,1.0739588401022604,-0.5750416814300985,0.7012748853092854
Spin,0,3.4312034773588174,15.076494170286503,-10.964043027202576,-4.235165896695202,-4.036109284225332,2.1995045401537148,-0.5415622113559507,0.9625496782211319,0.37158270554494727,0.7860980446591406,-0.4260043367968862,0.8422140640466426
Spin,0,-5.86028763791248,0.9721140287321429,-3.1737694705750674,-4.154142586352268,-3.9816337808311135,3.049436148616137,-0.37664111928583976,0.8796264422140719,0.5657832129728773,0.9984968044228106,-0.5637244896328336,1.0618525856673913
Spin,0,-5.906608367487708,0.9860464890419137,-3.1092050741161503,-4.486160849077456,-3.8139122203334455,3.2049609228126985,-0.39249919362145425,0.8955502532281105,0.2529458261953056,1.0274431238308819,-0.5777096269862169,0.8948947096059087
Spin,0,-6.0171880792235894,1.0717762213460074,-3.0836223325327747,-4.359523254295382,-4.0863211218300926,2.771149683484019,-0.40422145460321535,0.9264738742344824,0.31999970139572315,1.0661725074155064,-0.3822204333889563,0.88207812380201
Spin,0,-15.79287860234566,-11.575727162366503,5.055585054849326,-7.882591739339112,-6.296451765040608,6.211417938117567,-0.6152074515732021,0.7720029086234071,0.09637887994365929,1.0751856976454524,-0.42164797696681083,0.8785716181541604
Spin,0,-15.7069405277154,-11.673837454575413,5.250068177441134,-7.938822988252009,-6.219161836704697,6.010623990784913,-0.6145950776099498,0.8759362310068968,0.07393087543803699,0.9604900518150047,-0.4393730896154369,0.8868774689581438
Spin,0,5.814590780222245,14.307896205096979,-2.6636286227900614,-6.099857466392256,-4.592141260904479,4.596322744321772,-0.7192551021081626,0.4942998451241243,-0.05918782076543513,0.8395729929026281,-0.16304116024331963,0.9504269079037524
Spin,0,5.80456576815369,14.226968906919584,-2.6908151228556583,-6.041315053979191,-4.707394632456757,4.602902392784594,-0.805153043481248,0.5949692749241611,0.06347862602032596,0.8727431197713771,-0.37477857277953225,0.8284855329450446
Spin,0,6.824267184859144,-2.6536762549996262,-2.9264001902399,-5.855133542387628,-3.9902890728526064,3.7484989524199275,-0.7043334900995132,0.6419844575136554,-0.3437829878303932,0.9772215874098239,-0.31364035906485055,0.9912885873118789
Spin,0,6.737090290144425,-3.0070343877930275,-3.18041249308242,-5.863831728077353,-4.057601476756523,3.553290913178853,-0.6891727511282283,0.5678060531621437,-0.20589916602459732,1.1815280501430405,-0.33565410258713135,0.9433016139988126
Spin,0,6.837859884547502,-2.599990895956477,-2.7427927542432986,-5.879369055926222,-4.005663474412995,3.6756369730204357,-0.7283082828882455,0.6153996224436429,-0.21391846697693248,0.9456201270895945,-0.1783986762483599,1.1775486586801749
Spin,0,-33.35359385432738,-16.35280556686752,-4.896759973903463,-9.235856299489864,-6.929955851039702,5.958206815634931,-1.0173138838334657,0.5516826167436875,-0.35166217394589244,0.9286975620549455,0.014700117345182652,0.9539891100548935
Spin,0,-33.176744385384524,-16.615084461144928,-4.762851893248691,-9.013986379254977,-6.789011071776034,5.8649101346984915,-0.815381351905862,0.44935802420137944,-0.43208355580349034,0.8357154211676279,0.03157224613370702,1.0687910236752405
Spin,0,22.220830798894454,5.430636349704829,-8.947354439988313,-5.080223831914344,-4.085874267665369,2.851234796104998,-0.9956243110606972,0.4957446417902887,-0.591391843086745,0.6911540097371238,0.21672633999631777,1.1538760925678644
Spin,0,22.220068905005792,5.479189909944654,-8.967530060610017,-5.1850715203023,-3.997999119453669,2.79032921035111,-1.1144766972322044,0.5250181848470966,-0.7045118703776665,0.685602422495807,0.245929434047982,0.9175485030125952
Spin,0,22.056375212642646,5.519602515082136,-8.969103600779397,-5.286926945596064,-4.166861312784459,3.0369822407883897,-0.8724756301707649,0.41378692445599635,-0.9044922739969009,0.6970694218315444,0.3922032433707525,0.9755169885310833
Spin,0,-9.463180156474076,-37.25929237263371,-25.729057347103527,-5.991764579063366,-3.8136010687085853,2.7693896919465253,-0.8849546913240903,0.5985650842571145,-1.0409007504388723,0.538201139852001,0.6411570296622405,0.8501991608590976
Spin,0,-9.370573366348848,-37.43305459136452,-25.848330210109523,-6.025483872750684,-3.6856148947812906,2.7647189737811213,-0.9797679015300398,0.3135437685148774,-0.890731655011597,0.3037026674092665,0.30270022477759917,0.8979349121347849
Spin,0,23.10139371987519,14.004005466948811,3.218899958987541,-3.5479682474390613,-1.69469606157447,1.6560487466003226,-0.8671712873170585,0.5480743161206332,-0.8532535504146436,0.11647719632851083,0.5333274782931082,0.6610272182418728
Spin,0,23.213362915284176,14.141042282502912,3.357901625347182,-3.4855514976672377,-1.8755511647866925,1.2186490847844162,-0.7136983445118633,0.44641721729262873,-1.0195880627755398,0.18707931289902396,0.6397446027983918,0.9947046621151994
Spin,0,23.172578030184326,14.075115811245315,3.152820451726302,-3.194944782615556,-1.6012677840164957,1.3789909376061316,-0.9886965663014589,0.3468299725850412,-0.9665807840718915,0.20750172938417408,0.6814954839672055,0.7032255440496261
Spin,0,12.856289338930548,-50.603863847323105,-26.189198559789553,-3.4746312014087684,-0.2143606826187278,-0.285926292244545,-0.925098643262517,0.3693695629670618,-1.0514890961361383,0.12736090726149643,0.8313203519039303,0.5257988344236616
Spin,0,12.827526897584653,-50.80472722850093,-26.118954583447543,-3.2836013371767123,-0.13911347216586434,-0.4659500703285036,-0.9162525167473438,0.31439737790849176,-0.9661118165429604,0.19511093883274455,0.7979807844817521,0.6592943982133367
Spin,0,14.352832866693864,33.007863267348654,16.01179897587409,-3.1239831402721476,0.09422704097018678,-0.6278559625045127,-0.8289609646974055,0.553443548989226,-1.0691479601619533,0.052473776746482084,0.9360153461086145,0.5612049716485008
Spin,0,14.276220771685978,32.90488588526479,16.000107566125962,-2.782948779777704,0.15027133907729806,-0.68972755761318,-1.040337938447654,0.4993260997086601,-0.9824893772137002,-0.1082821238519052,0.7495377825957179,0.5072544870176532
Spin,0,9.146858586316347,-0.46151886994343605,-0.9403650302079116,-3.6233651842744217,0.11002517239656726,-1.127056615270543,-0.7987570462224334,0.2928062692337763,-0.89873705161861,-0.3346927285960986,1.078606400919433,0.47754752781641674
Spin,0,9.150696185731457,-0.24078132429260724,-0.9930104886042425,-3.433576137899047,0.18072822010959627,-1.0181250785477436,-0.9118004973681483,0.1275014855669177,-0.9212775621010344,-0.09539212617792873,0.9035099242239883,0.37481626508449095
Spin,0,9.088666649969323,-0.326028534209758,-0.9354987407211653,-3.6526574109450576,0.1012219647407673,-1.0073571831779793,-0.9746556505942771,0.31887914853770527,-1.0749946305222533,-0.3059118200526829,0.9493304940392151,0.2657077714620857
Spin,0,10.936346526652153,-36.13175107213194,-7.4514016336074125,-4.2334340524862535,-0.9916829477643235,-1.2858586368043052,-0.9243307810060774,0.27029294156104877,-0.9234256567030086,-0.3622941398882756,0.8718456122174393,0.12315728493002358
Spin,0,11.029672885641265,-36.01456054432066,-7.885102082578951,-4.239153538950609,-1.0484555482892897,-1.0667176549630304,-1.0920256862045803,0.5341543380961921,-0.8075761494240308,-0.2886363216582906,0.8842568958937849,0.22334851937439995
Spin,0,-2.431204998049239,38.1722919600915,21.893527407116355,-2.5828890079512403,-1.1534496310418378,-0.8486465248018715,-0.845793700725851,0.37079069420855104,-0.8288976662096831,-0.5438132230105639,1.0797349612408278,-0.03622177291625927
Spin,0,-2.5240100107397305,38.41499505621532,21.662485974827167,-2.517934963052503,-1.1461780361059457,-0.8770412663531197,-0.9886671832329391,0.3578481156739899,-0.9556555899236514,-0.42172630998428673,0.872472161752974,-0.029786250404035645
Spin,0,4.614727815125261,9.441580483317807,6.692558076639679,-1.4141006348168188,-1.77173258258544,0.06646586291544627,-0.9685984453722283,0.3966880338107481,-1.0481822377731944,-0.6333246209969963,1.0080053867396004,0.04850503079024781
Spin,0,4.616828134017578,9.623961204576283,6.663907896013236,-1.3460528322180663,-1.6313265934594603,-0.035652706243999244,-0.8580994088943524,0.4608788197633433,-0.7687258763223389,-0.32364572268759256,1.1398816115217403,0.01737637107321295
Spin,0,4.421870493325875,9.358567053806182,6.603105851342641,-1.4144404989409642,-1.564544356585913,0.06855058928358568,-0.9787525249906859,0.2502580512474597,-0.7832378581198458,-0.6294738212876505,1.1007629068499922,-0.05258507171578174
Spin,0,8.70302596545375,-26.673471603038138,-8.055796678048088,-2.071862440057042,-2.6549410710975616,0.4073806383748696,-1.0793376028834085,0.2851205598025705,-0.7471340626596532,-0.7202606788842351,0.8190623134525356,-0.3398264470912442
Spin,0,8.75874116466312,-26.588193746794065,-7.848641411080245,-2.019654468041436,-2.685505884711455,0.23492220962284854,-0.8042110402305682,0.3043980946857313,-0.6741623098601323,-0.8081275208910156,0.9016432661043053,-0.08803982229860491
Spin,0,-7.482450326498071,36.630506224798886,11.022457402689504,-1.1015614569447,-2.1202634154979783,0.3602043357848431,-0.783727784626572,0.3753489157959545,-0.877484848028666,-0.6774989523712319,1.1496728829166163,-0.07764620236506828
Spin,0,-7.6038841163331785,36.42790256096889,10.81868911606714,-0.993786890810948,-2.219318233224264,0.5129345087622055,-0.7486253874573988,0.592499837231286,-0.5235476688023959,-0.7576689036964741,1.2274907662123224,-0.08392035571291201
Spin,0,-7.7706213083094635,36.447205427451365,10.87612849120192,-1.066966471632147,-2.2296326705623075,0.3605946655289612,-0.8666006341566354,0.4048181654499532,-0.8049931885373828,-0.5641798789947342,1.1351570352362264,-0.07684734403329499
Spin,0,16.30390277297912,-10.810411137855322,-14.841305218487832,-2.28419078619077,-2.826054622492367,0.7761312515708695,-0.92833949669043,0.4405728856843974,-0.6557652499824311,-0.8381605586224852,1.0490497769048113,-0.17055789042959765
Spin,0,16.115029758167847,-10.948541923197201,-14.79582421468183,-2.146188011359674,-2.6123312760222706,0.7180946107071806,-0.9402030689913057,0.47525356356412857,-0.44645638905731827,-0.8709318345668521,1.0145568086640018,-0.11380476512822904
Spin,0,-9.566856559050162,27.592099184133048,8.842881386681862,-1.9167603878004704,-1.6271853814072748,0.4037552218550038,-0.8311104288562762,0.43288113882763324,-0.7031553113758715,-0.8528062726495009,0.7851329570346232,-0.27006736298766293
Spin,0,-9.546837478894808,27.56117874925221,8.756843836538257,-1.6534446829594216,-1.6360196746786129,0.2682803652984931,-0.8046339802360849,0.41472903229695013,-0.5699877501183479,-0.8920342735089637,0.9083218912761809,-0.05042724337011664
Spin,0,15.714612587626123,6.414178770419866,-0.8706308809703932,-2.7997613295430983,-1.6950183345009266,-1.3282006412819172,-0.7920009796940775,0.6226307481872146,-0.39173534421563616,-1.0212355262357045,1.019079508988395,-0.21168259245246462
Spin,0,15.838607569749037,6.533698022592594,-0.7529579878796604,-2.5756850321859672,-1.6529647207041898,-1.4142991030752343,-0.7427168737404474,0.48041273474429913,-0.44595791010476094,-1.0662738539673273,1.072648911504421,-0.25248643005320176
Spin,0,15.977444060617012,6.472239613392403,-0.85981093452558,-2.652062654015944,-1.7589388908415922,-1.4090874137521094,-0.5436292736659363,0.5798278047460748,-0.542142467607388,-0.9442194258212216,1.0319249146972034,-0.34333393993705896
Spin,0,23.956338019405926,-16.31167085307643,-10.258362866879306,-3.8061646183358344,-2.4534628888428007,-2.4513295488342197,-0.9058178769456131,0.5153417123996973,-0.4842975365690966,-1.1054383996412716,0.9788641538993516,-0.39707253492035627
Spin,0,24.21031212970648,-16.394287387569623,-10.261470021179722,-3.817313951528927,-2.5104938432204684,-2.4229362525072133,-0.9011319046082233,0.4363698025639367,-0.50997161450807,-1.1050172535333622,0.8275751819061363,-0.33990870198547013
Spin,0,-18.21454991755466,16.742820081967565,14.907692317779388,-2.2275013594871598,-1.8428733356107503,-1.9339735011859087,-0.708266855490265,0.6935527903927966,-0.23262946083764546,-0.932016837277779,0.9395796432703678,-0.4709874649976654
Spin,0,-17.841520685266246,16.870366856345004,14.907308056857925,-2.0607880918242385,-1.7776274949107436,-2.153496653797966,-0.6302210043207541,0.5548143592265562,-0.26300223405409046,-1.0212799622489122,0.9815761092399364,-0.47709481853922836
Spin,0,-18.09430607767946,16.719304749057397,15.169637563092415,-2.1441634935841885,-1.666564785760656,-2.0456355475428962,-0.6348294431106252,0.5179426269198601,-0.33731065636656776,-0.9546705775592371,0.7866665062100295,-0.6503065102733785
Spin,0,24.735570634063365,-15.01550888499042,-10.437046731970582,-3.10236004955314,-2.921868805334782,-2.226985920320032,-0.8918075182824053,0.6642117504419047,-0.18675535047007474,-0.9608738724964558,0.8662439987420998,-0.4145909570738823
Spin,0,24.60742334277197,-14.94443557521243,-10.029866276690209,-3.058546473183126,-3.147681312828077,-2.321250895445003,-0.6506652766133036,0.7143883271470512,-0.19955802031027076,-1.0264374208726026,0.9137433555671788,-0.5230927806551735
Spin,0,-25.53959946014638,16.476939863380537,11.078493559592857,-2.0449880908518288,-2.165008509142813,-1.1005996708492765,-0.7590973629643712,0.6448648829531044,0.03480552756402076,-0.9107121521846048,0.7835233760337676,-0.690092397995483
Spin,0,-25.51662295294192,16.346451906386164,10.94757790813144,-1.9247119027136887,-2.0005642163729003,-1.2289415245542792,-0.5902675268512698,0.633690420136394,0.08789575186832736,-0.9827430418236879,0.7609368328655248,-0.5317795567726769
Spin,0,-25.58249364388827,16.40297780397802,10.968366375401633,-1.9178994683731558,-2.268575074618089,-1.374620116471625,-0.7540001158583405,0.6940199419227051,-0.0699694120895105,-0.9269292477289074,0.8922766500209545,-0.7303284914561741
Spin,0,26.171042199230016,-5.951908344977466,-9.323617125832413,-2.9054655548967645,-2.5678615970737786,-1.0008237453885092,-0.6778264720896947,0.7983456006944735,0.07560572481251743,-0.9246559007597761,0.8415821170437565,-0.7708086124077488
Spin,0,26.12769942502452,-5.940158062351185,-9.441690322371711,-2.84499164602239,-2.502791810663192,-1.0190270118504525,-0.7942857795957532,0.5941344540079538,0.059143001358775836,-1.115803198888381,0.8008133409526554,-0.6676845891473302
Spin,0,-27.29361116187687,15.9504515874868,11.125766906728622,-1.9838682577758737,-1.5145761253045262,-0.28296805261093755,-0.579479621461241,0.7639245918469297,0.051861228550230155,-1.081705694155588,0.673873535391031,-0.5381766514460303
Spin,0,-27.10056182715664,15.918928778712308,11.357674364579488,-1.873295423484753,-1.6611333787032212,-0.2748379911263461,-0.7026673280631227,0.8026845179091574,0.03809300107250961,-1.16994186727866,0.6867349304135556,-0.7720973012415481
Spin,0,-0.5280835237349858,3.8550051132017495,0.4367875149163229,-2.086148162531265,-1.102936761062579,-0.13609379849908892,-0.589777768201206,0.7900438017743835,0.10916581337149707,-1.0521013375563797,0.7693319696432209,-0.5000670282869369
Spin,0,-0.7464685609204638,3.515973025586921,0.2119457067267479,-1.9923311323299673,-1.3248575591747247,-0.01166365960758222,-0.5370231906024797,0.7180301763289898,0.021828338809430442,-1.0185281205059156,0.877667771263417,-0.6205608733236926
Spin,0,-0.5886883233282423,3.6534141556879596,0.3339783264016171,-1.8639896740424031,-1.170500709935719,0.11032049089585907,-0.7329301558354293,0.8117561665445037,0.09342386009200804,-0.8756586731997718,0.772395686613216,-0.6956009570017444
Spin,0,16.035974811593967,1.04783392077331,-5.387716282929376,-2.4082414675374966,-0.8481867639930012,0.27591142809319236,-0.6413023390186118,0.8033596762171666,-0.0731761776363091,-0.8988456521283771,0.6959516168956387,-0.45870593868455645
Spin,0,15.975873859040412,0.8637973836670213,-5.346006948904429,-2.297337879756021,-0.8298538122013341,0.3038481064176259,-0.587705900541977,0.8782250678644136,0.16791637396240267,-1.0163055363675586,0.7916740704867307,-0.712585151847219
Spin,0,-23.88698083027009,10.068669305879657,9.434940334049937,-1.498074519846004,-0.2500981073679271,0.2168492313067009,-0.587280812649227,0.8620479647602945,-0.009483297224241627,-1.061771890892961,0.7897656044752823,-0.6001969725867738
Spin,0,-23.585918311380144,10.165756043834593,9.280892954004532,-1.199517858922136,-0.20887337458897165,0.4778297227908004,-0.7501231249552966,0.7763888307771618,-0.014513714157370558,-0.9802340194592531,0.7008160518364297,-0.6964279411424659
Spin,0,-23.58909305780715,10.313840496270535,9.287552727524952,-1.2757872430570771,0.0030714645658660167,0.534692099378866,-0.6335901408151859,0.8200833940211434,0.07230441676128012,-0.9267349389759951,0.8967163123460827,-0.5186285602784206
Spin,0,7.458401849333811,4.523152890822248,-1.5852250540463757,-1.2766918355282104,-0.7915435676872897,0.5164148462778549,-0.5937441504928996,0.8652297025738512,0.14996435495788696,-1.1593277929425037,0.8266803549234629,-0.45407767451786796
Spin,0,7.619116336409486,4.410623184314458,-1.4766166868876396,-1.3785522302271238,-0.6487107843683796,0.3622476628751506,-0.26173943353879286,0.8785771844143861,0.1405569888371828,-1.0551544258422587,0.9320574508242088,-0.6749813075791234
Spin,0,-17.931541696314696,4.914647453594164,11.988128254718522,-0.5623792462483763,-0.3173218101974755,0.08073387437571942,-0.5188954826008035,1.0652278271651014,-0.012499807977512031,-1.0453152808595572,0.813690592005295,-0.6294766542445603
Spin,0,-17.91328040502821,5.070871466712922,12.05017645779932,-0.8136469960492579,-0.40961684953763394,0.1686100687328517,-0.44255093062526185,1.0184330504332098,0.18047114735442507,-0.9353077307149622,0.8389740026260882,-0.45646164631111646
Spin,0,-2.8356941885142173,2.888709669677001,-0.973742509035922,-0.514429547744059,-0.366030313864096,0.27870849030406925,-0.5069711583148472,0.9161530738879605,0.0872991842436528,-1.0853073586040913,0.7592873947237627,-0.4727077630476566
Spin,0,-2.8852153532225615,2.7642472536806895,-0.9918993977892472,-0.41872287762844745,-0.23639177393598793,-0.08757426472123626,-0.5079689937534044,0.81006558701029,0.059627373924701216,-1.0865258216913833,0.6996933810095018,-0.4622833006105374
Spin,0,-2.823480708415364,2.9393878765536163,-0.9793397423506007,-0.37910253048677967,-0.2117060143254297,0.010355278043007995,-0.6688650780061399,0.8137486789451618,0.10062860624966602,-0.9734180624889599,0.737462214209403,-0.6956646628016193
Spin,0,8.462091110403941,10.513314373521505,-2.8375991180498352,-0.7753926651221058,-0.1505117940270359,-5.8925724149172195e-05,-0.5168963165463925,1.0450202018925723,0.07551745410957453,-1.0412285369098204,0.9147339898907026,-0.5236774511891108
Spin,0,8.607588728685112,10.670281111767824,-2.9426422052405563,-0.6936306265353314,0.06905049471163106,-0.025933259453896036,-0.3559639795529702,0.8269389263688889,0.15005175163023193,-1.1845877596153496,0.8268181188965152,-0.5390695666867534
Spin,0,-16.448033679664555,-4.860354621134166,2.108886766080874,-0.6633370365036436,-0.10123196496931633,0.10361063844709165,-0.25919944786648724,1.034545778399971,0.06281632097806289,-0.91151833154368,0.6698798846196797,-0.5307094527428434
Spin,0,-16.526069388541426,-4.9644851713205504,2.036715129700233,-0.40372696539850433,0.09218397699652367,0.0012219524861349293,-0.6294610896474968,0.9268088745756963,-0.019834174418740816,-0.9652436496933424,0.7612084064990495,-0.7049887244473283
Spin,0,-16.424287120601846,-4.817859802280724,2.016440264017205,-0.5646643751937769,0.2776692228728837,-0.04702536925810183,-0.4829957474760748,0.7531989964747535,0.003961317349580121,-1.0526858119049562,0.8346609334035413,-0.40598745772445266
Spin,0,4.086317578495865,16.73130284534356,-5.824695541776245,-1.1276427743670494,0.17873768384638566,-0.08693093215133502,-0.39113563265716245,0.8327371049156426,-0.1231696758059536,-1.0932941027880443,0.7648492822723241,-0.5522513501931844
Spin,0,3.8587356055656503,16.732650430111374,-5.501457398112828,-1.1908271227840965,0.22406526450224495,-0.30986107282419273,-0.5600225450788414,0.8810496507588552,0.24701844042537574,-1.10883588855302,0.8395004370992858,-0.6235179373661275
Spin,0,-10.390534980451301,-7.786323979864924,1.7127087862798696,-0.42803615898287717,0.150519586844333,-0.12805022963677062,-0.46334910264832097,0.9029625271265691,-0.009205314605828088,-1.0181351449022569,0.7699535730080439,-0.6935410734791364
Spin,0,-10.50929979539248,-7.906009865559076,1.714711058959694,-0.6633718085702948,0.1375579603375533,-0.20300285244465927,-0.4546508924152824,0.9276533832319193,0.03426207884221312,-1.1167685745210072,0.8344295657874157,-0.6297020967577629
Spin,0,-3.1961316397847166,1.2339892141551834,-1.2942581025032858,-0.5478685023729889,0.3260139402300815,-0.10399748195573133,-0.34705703263501647,0.8049038448236518,0.0966736843526353,-1.0456166860826182,0.7497336509735613,-0.6365203336440205
Spin,0,-3.0832284229109366,1.042108983501371,-1.1639395774663768,-0.6610667933479994,0.32761323935117315,-0.2003572943243106,-0.4452875203883256,1.0242207419972715,-0.10994251837667379,-0.9544575852458068,0.7525936211037986,-0.571030048766164
Spin,0,-3.4940608843058243,1.0232096608762915,-1.309080154491058,-0.3771651175616797,0.28997765644963824,-0.36803576286618783,-0.4507443869699403,0.9514513988742541,0.09154618525970783,-1.1843254611223357,0.6346915278166992,-0.4980153003767484
Spin,0,-1.742027824579544,14.477386237350526,-8.604202381094893,-0.8780187948572007,0.3413987313766944,-0.02230379229411314,-0.575834646867009,0.8001308846906559,0.2131828730659164,-1.1097400446172347,0.8992232918286689,-0.6029364542391025
Spin,0,-1.5412393623160268,14.608891164326915,-8.595064371047378,-0.8352077249063806,0.309922826556379,-0.14625420880159046,-0.38342474121969927,0.8433422560302551,0.08970580441745857,-1.1398107294594024,0.6785272155156052,-0.5446799096126989
Spin,0,-4.365039776928866,-8.922498677032115,2.57928890319435,-0.67558104712982,0.3225817815666192,-0.12906507915865204,-0.4278598898783225,0.9561841486255703,-0.12010064907758757,-0.7618076794370212,0.7873489480377466,-0.5878006497226154
Spin,0,-4.573585629147395,-8.920562302625564,2.951565482042324,-0.858346026838098,0.22955832789827554,0.03286276773286391,-0.4259816861442695,0.7073359726117884,0.05515166283785186,-1.075281157651394,1.0114285788153754,-0.566215395059161
Spin,0,-4.557038964940706,-8.84844630267093,2.6803258659640252,-0.6774886712814884,0.05883556221442712,0.13598501833783555,-0.2174420342011698,0.8331677980425746,-0.10256266001672727,-0.885767021732655,0.7475819398288437,-0.6825165840221731
Spin,0,-6.423114594431622,12.579104162751332,-12.291208047225735,-1.605358480351392,0.08974037845571874,0.1472761149415032,-0.25516162954254207,0.8463347338719299,0.08946360084404047,-1.142650055576334,0.931653562605212,-0.5457930848095176
Spin,0,-6.215645999621314,12.910170465423967,-12.266024345285748,-1.782675395966212,0.12211210307996692,0.1272585204918356,-0.5319230450132917,0.9304448534313706,0.08002807093954625,-1.0707677138410658,1.009069848196828,-0.4770866839548766
Spin,0,-0.14381559312653514,-11.4514158114212,5.1555423255571915,-1.393204561196237,-0.042830026194003834,-0.04824616218824237,-0.40739073556524313,1.0704899214381558,0.05791942831241437,-1.055343850123898,0.7440225562198148,-0.7165781819563024
Spin,0,-0.17901642836782355,-11.480533329830136,5.415693762634583,-1.4907426367008445,0.020383308345955906,-0.17897349878962335,-0.47663452998115147,0.9338091298992898,-0.01922305906279019,-1.2152146809312656,0.7129345335371089,-0.5536816925429823
Spin,0,-1.5660116553468255,0.758955303724931,-3.532588161541649,-1.6729347167457724,-0.005152718327958661,0.03408331144257157,-0.35017343396818335,1.0617285836052142,0.11076205861109485,-0.6740123407900345,0.9818970340381085,-0.5412579549506902
Spin,0,-1.4851488948278455,0.8032112616977402,-3.3310858902838065,-1.7091838334684628,0.22164326092615666,-0.1887630831913809,-0.4083331522280788,0.92802100350368,0.029759910785299916,-1.0629540924854972,0.7633694808894345,-0.6039776689263636
Spin,0,-1.4187706507054847,0.9847545622343032,-3.397402159741644,-1.4484149881140982,-0.027693410214495923,-0.24638048741240057,-0.48226971327196166,1.1146158382061306,0.07164541557671304,-0.9408858991922653,0.7666445711219716,-0.5832436261285827
Spin,0,-1.7706418352831705,12.685341762081885,-15.479924847763042,-2.9506667302919416,-0.5993697957326338,-0.7262632695850986,-0.3132664048497252,0.9846945836833985,0.03360679430596583,-1.1246306044244267,0.7596167445711379,-0.6766329507197253
Spin,0,-1.8246669553133825,12.617506783363263,-15.507219555520532,-2.9183858268516945,-0.4318471668552451,-0.697798481211539,-0.28842658485697326,0.9596106879208521,0.056955512446430503,-0.9547217015459698,0.8572001719795855,-0.5071827478056907
Spin,0,2.542775706431801,-9.94860934278704,7.065850872579472,-2.1865265707568917,-0.6859276927209154,-0.6755472448389894,-0.24112639618525653,0.9800626118284573,0.35082912526687987,-1.0503908759434215,0.7807679037375287,-0.6296933192087343
Spin,0,2.51869058423249,-9.789606639777544,7.075218958080046,-2.279535698204559,-0.4833000068155465,-0.7635828827916624,-0.3273476988610395,1.0391425316958494,0.2556350139636053,-1.089730698679771,0.736550008257276,-0.7237041408980985
Spin,0,2.2315995503539283,-9.972271409748725,7.080148542776263,-2.5146095164480013,-0.4436938273210803,-0.7147451654491679,-0.33619483748655543,0.9443072667632149,0.18882285363192403,-0.99692565148274,0.9049396223187207,-0.8350888931075268
Spin,0,-3.4843270149224264,1.986991787609556,-0.15076144604522682,-2.4261639072938115,-0.9831639205130804,-1.0723524334436276,-0.2637094178854773,1.1923868471528047,0.2408437049723229,-0.9229206541147985,0.7540819252910194,-0.7244864251388923
Spin,0,-3.60023864621177,2.047587985648307,-0.11944212018332556,-2.3698234290310327,-1.102988289920489,-0.9896755571360611,-0.3284053711419861,0.929815429168793,0.11789429648441326,-0.9866661898703839,0.9030402128919424,-0.6555703059439595
Spin,0,0.03505244006355655,-6.762270055166048,7.196038629892809,-1.9588398217698355,-0.981256649501705,-0.6732746351940029,-0.07379037120512487,1.0830422077060498,0.0678483100535102,-0.8282244453707468,0.8353344674502025,-0.5008034052882877
Spin,0,0.1204260422754693,-6.625934635932402,7.00954317548337,-1.9796413461132378,-0.7177122136066192,-0.5931009652255348,-0.1650694760292813,1.0605454188479004,0.13371279337102562,-0.9798923736928423,0.8834561158986902,-0.47889137485501765
Spin,0,-2.3217185049701854,0.9257712631329588,-0.004677295986312516,-2.1434367857102075,-0.8915815503845977,-0.714217974113472,-0.21547970905421215,1.126755695471295,0.08558141665571609,-0.5969722533510243,0.8655778337739337,-0.5288791503659109
Spin,0,-2.3376377420230448,1.035289118938827,0.219583569501065,-2.073047646311699,-0.9333747741910966,-0.546838067623483,-0.1435906825239309,0.8682444075312302,0.1686326200178115,-1.107788827268505,0.838092205243899,-0.6184562544040666
Spin,0,-2.2334070221693456,0.7209068058725471,0.10074880935850175,-2.049430604342981,-0.9396041948924717,-0.5870153338063491,-0.11615339360184687,1.064816491608313,0.0115887239913684,-0.8503256709445054,0.7742798933982293,-0.6608997596173168
Spin,0,-11.472780566306815,19.774348126973155,-12.60935216962122,-3.30814747572477,-1.8559746315445997,-0.8132076009592232,0.10597125984775282,0.9896783378545011,0.10251919311602012,-0.9393606227380455,0.7181361285503362,-0.5557400952443217
Spin,0,-11.476290845014375,19.823078488203702,-13.05515913432384,-3.171958522213135,-1.882873314631162,-0.6330784630399693,-0.03332716103823556,1.09833394683045,0.2617092270673674,-0.8705147050171829,0.7442097558760459,-0.45697702714767996
Spin,0,7.076729748175621,-15.562473238287605,13.062068802314272,-2.233806701844578,-1.450377988038201,-0.5880371956873074,-0.12046851959738532,1.0121690403938595,0.2612376149918935,-1.1148407300803878,0.6987215481228777,-0.6251495532507649
Spin,0,6.646485999302054,-15.795112237433534,12.877086737145337,-2.3867531243840236,-1.419835421094883,-0.7007354411555973,0.14644362686307114,1.028677375615768,0.2977880206210516,-0.8315484101351047,0.9849105087950356,-0.6260933887294581
Spin,0,6.898022956822121,-15.587091818140227,13.002686921157983,-2.311870435091284,-1.325760807827152,-0.6037167658797206,0.0879205398704364,1.0062341780264652,0.33742795213343524,-0.7942573810420641,0.6820095459077475,-0.5277924064112226
Spin,0,-0.5431298246607809,16.588277636302227,-3.6769561371761017,-2.3167385127887763,-2.503985456613643,-2.893800310670712,0.04127829435686899,1.0519739072262313,0.27107009151757694,-0.9203235598857916,0.8273517105279864,-0.575389818048113
Spin,0,-0.583420313545767,16.569072966062162,-3.7341181297786856,-2.2635068111396612,-2.7197766112173225,-2.617639313838413,0.032809716987722275,0.961668107403566,0.25559879397944885,-0.9457271438901471,0.7844232110707032,-0.6583662948716935
Spin,0,2.82384890416651,-15.354337328121652,9.089501259957542,-1.5987124717056085,-2.1292303238631862,-1.61232250558875,0.08975996055816766,1.0333662441730682,0.3010293245810753,-0.7959351159374894,0.8146053013962617,-0.7216598183282966
Spin,0,2.8685976577225207,-15.417318853673978,9.160457887250132,-1.7875727307526845,-2.0241147015982124,-1.783923804179014,0.17597310415935222,1.016933711970056,0.26970326741153294,-1.036516904533384,0.6243141119030727,-0.7460751126514904
Spin,0,-2.871829339927049,-0.007011783113761494,1.2956342748613012,-1.6371278812525543,-2.3898281199179436,-1.052821600097583,0.2524362498495848,0.8581911968978427,0.4766816208321798,-0.9196744798055222,0.8036337475838148,-0.7132373684786006
Spin,0,-2.812967586202821,-0.15724944215206274,1.1435705288431703,-1.546276953783966,-2.3978123359742027,-1.2496320646051136,0.07609835955915131,0.983035275669315,0.22120615591255494,-0.931591662682408,0.6767893474538738,-0.7314024098669202
Spin,0,-2.886878164452557,-0.0069055099761780245,1.2651740640971003,-1.3437127827110187,-2.2798179797354035,-1.264716485237192,0.17401824487428386,1.0736267992358972,0.15544408268734417,-0.819436250973042,0.746165782600995,-0.6970744924876198
Spin,0,-14.848858081856001,13.751203161024488,-14.571859465150242,-2.4530258497156954,-3.7818936627924566,-0.8345344488665678,0.2682101477098145,1.0790843082014159,0.45789855772943067,-0.8128217945652348,0.580524098643392,-0.6230201001775587
Spin,0,-14.704458488493549,13.775156575999684,-14.665909957264804,-2.2036902076205087,-3.9168151434370015,-0.7735336614040864,0.089373200997358,1.0065583638405808,0.39337679873289033,-0.763245604722399,0.7412345248066075,-0.6014483245616055
Spin,0,8.944381245527454,-18.45845000887916,9.764515468350405,-1.4164268919900929,-2.4425046700998254,-0.15296584367307323,0.07948628473176987,0.9334031304117868,0.5580129201810412,-0.9435579996254292,0.7418959669645526,-0.7360474583450123
Spin,0,9.174181322411012,-18.36053766638394,9.602258413271636,-1.3846271565642614,-2.5131083726514953,-0.3071117656292255,0.12177403729052906,1.0869232360744838,0.46264252075515533,-0.7528810021475787,0.6946660986838203,-0.5537136431919474
Spin,0,0.5348394438430524,-4.749235419082781,-4.472431929597654,-1.958679689440751,-1.4062270472383054,0.22129171967436675,0.25710641779172794,1.085260991185148,0.4403294309733029,-0.852264658862445,0.8051579363556238,-0.6649846544171176
Spin,0,0.6646132565316238,-4.611661087410951,-4.425626636638713,-1.5681363336715513,-1.267051606490793,0.07056790583598627,0.04361604214082987,0.8647103299261552,0.4885696289294542,-0.9091273417596671,0.8134814520191731,-0.5448110509986039
Spin,0,0.6739342315975674,-4.635741838776997,-4.596952007618871,-1.6986709159060607,-1.288100290905169,0.12264891423339763,0.10287600186227328,1.0226944338594164,0.5006169101547477,-1.0282405276329936,0.7825775890873389,-0.5440546563757559
Spin,0,-8.86113965462804,10.69166290838515,-16.004136606527965,-2.833073664777202,-1.9693218546039928,0.1690830660372692,0.26018513046224206,0.7774866177596019,0.590479418868989,-0.6993223567498229,0.7418431423265389,-0.6594458742533569
Spin,0,-8.995110305623534,10.443698550687916,-16.110917599665974,-2.72234579598485,-2.1296515107517364,0.25871735355709624,0.24281532427564265,0.8877429929220927,0.6351707007733801,-0.8464089631007325,0.7549123028174503,-0.7055546416900084
Spin,0,13.742160303409637,-13.259103703093665,13.428304054957179,-2.2702414205130776,-1.1642614715766153,0.18972732664004036,0.32159157713784037,0.9127676136694594,0.6484422390982416,-0.6849644214480676,0.9492032578559039,-0.4666275248704335
Spin,0,13.836598434840894,-13.08148967520785,13.403754134683238,-1.962027560671184,-1.2965625980494113,-0.04257900648911367,0.3787903391990451,1.0209579158093194,0.5063308973081825,-0.9374745924526176,0.8186433540789912,-0.7259206029199397
Spin,0,13.852055278155998,-13.198968781374735,13.315773553121907,-2.1889935925802786,-1.205552677034575,-0.046231174245193546,0.3089666585800762,0.957746204559997,0.36130986034480017,-0.7426967582066015,0.6496927450556145,-0.4824412120385336
Spin,0,-6.051961339155681,8.150819351164385,-21.063003067259473,-3.62766629713226,-1.7978318297294467,-0.11419556845954623,0.40166059687210215,0.9377645322178998,0.6443039264423607,-0.9282215679201443,0.6686011368172902,-0.5597678586452494
Spin,0,-6.0538963323706465,8.442023259297965,-20.993506404998467,-3.505248177620183,-1.557841698397161,-0.30341916525108725,0.23808283944733294,1.0751554289550351,0.6082393493323932,-0.7405783316941242,0.9051252479763083,-0.45521748516431937
Spin,0,9.515572416567338,-12.644414524089086,16.77687464811415,-2.556561155400555,-1.142029670545681,-0.1000839542101192,0.4853328441026177,0.7970422182402577,0.8399783533573006,-0.9071069427817146,0.8171043073314984,-0.599772690091202
Spin,0,9.488337553627376,-12.493423734060332,16.888221598641444,-2.5343363490167534,-1.1973540784639756,-0.30070122339294963,0.4498281897535304,1.0739274171214368,0.4549835362973715,-0.6677541221861213,1.0059813785100074,-0.8502054362528887
Spin,0,-1.161423011586196,-1.150681991786265,8.515025821109122,-2.3238281392628406,-2.0834819595476164,-0.12196985884631868,0.42300724648068494,0.8561252932230373,0.6249234692925719,-0.5484072910053858,0.9006052657934952,-0.47064019392774725
Spin,0,-1.3070647305452474,-0.9134972775341328,8.441296902601284,-2.442207620728573,-1.9569761785876383,0.004601159868159885,0.47851761682348,0.8379297977642124,0.5084009884099099,-0.698158787143286,0.8346301286553449,-0.4360842221436525
Spin,0,-1.226268657032494,-1.2381837617823985,8.487893247454558,-2.409830717512798,-2.012118696537484,-0.2352179897460524,0.5177135481131356,1.0373808807926326,0.5341248665178865,-0.6411577825825683,0.9674113008369788,-0.44224618281104183
Spin,0,-10.423051294762852,8.339500884344032,-12.576060058806101,-3.593493004725828,-2.6628059417138976,0.10171840613026091,0.3525552390674671,0.7699514060326791,0.7932847287457226,-0.7397095355358086,0.8626769508533834,-0.5723853667887787
Spin,0,-10.52978012629533,8.24684894797912,-12.802388002588149,-3.7620236789192383,-2.601807671619006,0.22421234537634288,0.6117442510205169,0.761015552764031,0.8129957510984362,-0.8410245804029332,0.7313056994197693,-0.510754922371627
Spin,0,5.746374145668734,-9.270319212923116,14.36553385036167,-2.470763230914798,-1.0137506174022022,0.07112208489490182,0.6496981633318872,0.7095182864187917,0.877318881831733,-0.7474398879180878,0.7597555772945559,-0.5238991424485409
Spin,0,6.072401923167911,-9.171472851525897,14.374020576820316,-2.4894181668418596,-1.0937747530615831,0.09329786012573323,0.5825710040530617,0.6859655372325,0.8351121863758936,-0.5236791939671266,0.8515488106377845,-0.4209523044514386
Spin,0,5.751728352678522,-9.120999941461676,14.356241986878224,-2.579749612208592,-0.8752356483450195,0.18133919331781934,0.33695547675401105,0.7760259821006643,0.5909442233651148,-0.5837903809808409,0.8035739498790384,-0.5490019267993639
Spin,0,-16.33721764794526,10.555854290379365,-10.077790371115004,-4.1076625103364695,-1.9108261957891655,0.5025837527437232,0.459776949156737,0.6728590758167111,0.9360368588060628,-0.6535334143151048,0.9477537402423525,-0.41644548794075714
Spin,0,-16.372719230269567,10.603530626921604,-9.932646766410734,-4.09423200390564,-1.9208808910428536,0.4464965865796831,0.582154483823272,0.7766622080089859,0.5411453500626893,-0.5233562035168317,1.027758081569712,-0.38064099155483216
Spin,0,11.490889472392778,-9.45315682326143,13.887253581268862,-2.691082744268991,-1.2511091020669793,0.41252364963138327,0.6756266043537087,0.9627874452659019,0.7543362890491726,-0.5319487188595193,0.8359241531503497,-0.18281009035141474
Spin,0,11.385926192711356,-9.338211768120164,13.73752179332893,-2.759495413265822,-1.1389883981825257,0.44333091990741336,0.5923441125678267,0.7410861748843416,0.9249335979218805,-0.6604337658355751,1.1019257455557123,-0.19042387922984783
Spin,0,11.539448247643527,-9.479152030343322,13.569987619769952,-2.837557521833465,-1.2333869210306982,0.5578538862590201,0.5412511598478401,0.612049953870326,0.9169300632130147,-0.53309660523114,0.8233273295550497,-0.41679362954763377
Spin,0,-21.620381476719317,12.813189591757714,5.2888655645945,-3.908147373116332,-2.8488835071182463,1.2213994122107714,0.5926806680645457,0.9193560268795858,1.0209508505634757,-0.502584935235117,1.022969199392242,-0.24999839056331105
Spin,0,-21.39647806649254,12.787321235985592,5.3406140514343665,-3.972094751349638,-2.5006614916769387,1.1026320760432622,0.6518892662497421,0.8839300392445019,0.8209490669929772,-0.597180960657592,0.9916664243785672,-0.18651971701637882
Spin,0,6.745270066600124,-1.9664138579991879,6.306489436200146,-3.433919526034356,-2.033208166242601,1.2493611162560272,0.573429638942402,0.8527143389211744,0.9112709300557241,-0.3094053204086231,1.1186416548981077,-0.16060802328462923
Spin,0,6.799979256256162,-1.9477196495473725,6.200338808654361,-3.4368190302680977,-2.169715726888945,1.2017729451515833,0.6190187119908915,0.8895080221340605,0.7412974673533643,-0.46572186903507123,1.0859654078516738,0.10027317501773364
Spin,0,11.965978608893877,-7.37059530319619,5.179425464636643,-2.398042555463324,-1.3346495114712416,0.9082203729185631,0.701926418031317,0.8364951266215244,1.0969170557910146,-0.22192140850591732,0.9774632370474211,-0.13435247033435865
Spin,0,12.116131343942179,-7.5503817277851635,5.249437410187497,-2.4238263885084894,-1.3790755249982136,1.046617951856417,0.6840673440474196,0.7968896490818845,0.9428949132716394,-0.14183166485860396,0.9511733932292389,-0.03262635876463693
Spin,0,11.985446562583746,-7.397577651968249,5.073719614453198,-2.3871804748784937,-1.5443268472158838,1.001564050197025,0.4521543189287547,0.6877824539927404,1.0547562034314641,-0.2886758908611113,0.9983006549825789,0.008053401736004835
Spin,0,-31.306180598655576,25.575031943320333,-3.9166909055807526,-4.530645782558946,-2.2710818004620674,2.3588406973991676,0.6976561465479141,0.7899906158634422,1.0698104050113213,-0.19301973812442896,0.8254993163982632,-0.07468325314762024
Spin,0,-31.413106431590297,25.576223257166497,-4.006943245175247,-4.671596341627985,-2.1722490947855784,2.2665320582476722,0.4643990954928687,0.7414671702833187,1.0485261341853094,-0.13111464057924263,0.9768796958677743,-0.12646857980652126
Spin,0,18.846638786263238,-15.171563144563216,3.218211324426062,-3.10131495981242,-1.1145524621621172,1.6091589422449994,0.5469126228926768,0.9131524211862516,1.0958194241175667,-0.2723488511805453,0.9737416316266975,0.13810529412674988
Spin,0,18.607638654597636,-14.942526797788206,3.2121591762316317,-3.17816132891748,-1.2226239979444924,1.5405772773466,0.6698402005337118,0.8764807509663887,0.9858034791181979,-0.2448552984244237,1.048806521737292,0.27850273406775905
Spin,0,18.583867983264483,-14.71166609402191,3.2596332602665496,-3.0130545147075254,-1.0568288893974653,1.5309965070986717,0.5824255108170343,0.8259068024913734,0.9311020156082854,-0.1484978339392476,1.066062025953257,0.2307660142867894
Spin,0,-25.596367071573024,25.392508858594553,0.2939020548198728,-4.849086610834962,-1.221374712078429,2.5884836500182327,0.3409238829120974,0.7990783767240146,0.8661664118957629,0.034594205292949126,0.9693201266341943,0.23955450534279848
Spin,0,-25.456409486165665,25.286361422473046,0.2408185273100627,-4.7600194572102845,-1.3609233242518028,2.5061789888848924,0.5027660856967319,0.8420231384987529,0.9575223547696705,-0.055808864697886984,1.0104842754926155,0.19226969045528164
Spin,0,21.185562798598106,-18.327317828820277,5.133309730614868,-2.980437906510565,-0.9563228616977877,1.6059159487488148,0.4486206825379642,0.6916053514970861,1.0878757948239541,-0.15896125775023434,0.8452784330976523,0.27128508644947963
Spin,0,21.117344264758156,-18.429445648656934,5.111379850412315,-3.206973918971988,-0.9275700649630557,1.8283867273660706,0.5116019865208382,0.9450635995668512,0.7517080791581301,0.007936139043536836,0.9939023288775776,0.20241638299602208
Spin,0,0.8749710467871812,-0.12453567331768539,3.639477832656533,-2.954974197736939,-1.0193035299189743,1.5769580150184122,0.464596392217097,0.8856604361469664,1.0858045393263187,0.1918268023181747,0.9453058003668792,0.2445905229862031
Spin,0,0.7798400160057821,-0.40189498221552705,3.471061346730911,-2.5087705094210926,-0.8495561224362844,1.5264889635386694,0.601305523676283,0.9620450152843925,0.7812662284891478,-0.0037237615028660603,1.0113692199467568,0.5105420542002819
Spin,0,0.6310911350790034,-0.1707744922832608,3.499208860886587,-2.820209045287703,-1.0224837039106704,1.80141499978326,0.6281021033323482,0.7802147503815566,0.9674566868819974,0.13185828441902453,0.9271046450206181,0.4253831783371683
Spin,0,-22.41463627907837,20.246456518620196,11.938348604830434,-3.438241487435138,-2.1592296649701668,2.3096225906357275,0.6916792548464579,0.7782261484476066,0.8978234972970571,0.1276140366760728,0.8021154845573487,0.3161173748118307
Spin,0,-22.53191847375858,20.19497286748895,11.997049694024563,-3.575353765749454,-1.7864909252130257,2.3442131755807116,0.31245807357933597,0.8009171691609971,0.9871120722392149,0.22741139868171142,0.8425463789992277,0.3899933650240874
Spin,0,22.971965147563402,-20.290635501895373,-0.7262107119835342,-1.8439694063601646,-1.5285939244755367,1.476579745999345,0.4527213521121907,0.9784622311278042,1.082726465693612,0.23387922799125,0.6753873912174836,0.46877406962420437
Spin,0,22.9784381404735,-20.33852919967243,-0.6255453587039264,-2.0000522068746576,-1.4029633569174815,1.5317847952103845,0.3878123994374846,0.855011203706217,1.046754291616994,0.21548583884967654,0.7426351078524985,0.6186235426750551
Spin,0,22.80726038697813,-20.33167724711757,-0.51250770209886,-2.116606108244858,-1.30329851925463,1.4065852052932677,0.4973900917000288,0.8269971599225054,0.9200083210741911,0.23677111813350207,0.9362540916305768,0.6936571492023857
Spin,0,-15.525426670265274,20.142857272746085,10.41619132159214,-3.2501534261325125,-2.0261124156910015,1.2853064136680408,0.2280873548743177,1.1148929473257525,0.8972945379268199,0.14750287220832384,0.8842641185034308,0.5440299888828989
Spin,0,-15.609104456988625,20.123740765556377,10.441154738338978,-3.293190513852517,-2.1476337210720646,1.2420176267089473,0.35009314864359414,0.8832594592256114,1.0188007609825418,0.20204694678314872,0.8568385064695592,0.4664120258481695
Spin,0,21.504181614078462,-17.27762555850487,-3.5742851499581336,-1.8493127905287883,-1.4256083958571664,0.6078783524394282,0.40758687649400216,1.0768363626425355,1.1765582483037473,0.3284956864773203,0.8688703355279389,0.5681504885575995
Spin,0,21.252076786455195,-17.35827924515115,-3.751685345413486,-1.7240142614020169,-1.532655661576345,0.7554763312251931,0.2859310145175887,0.8153401017817924,1.0631070569200203,0.3101281909577055,0.8476898268713959,0.5448344105034378
Spin,0,1.1217397462521261,3.5387214276955063,4.723413746211822,-1.2532358029376192,-1.6035199886343823,0.6612169512518853,0.291715513845875,0.9183360636026123,0.8988044803318306,0.3668204610409302,0.8710649465756466,0.5308919744893784
Spin,0,1.1455021839492583,3.4096465776329374,4.585887216257937,-1.387397118531655,-1.462196416877192,0.8439615565567803,0.45711673957673277,0.9630462440731266,0.8095918257427119,0.4352372311800467,0.7044088838585861,0.7419234569689903
Spin,0,1.2694504057145664,3.5423862209150245,4.51998361694166,-1.417547428827594,-1.5000949920999624,0.6396938377502025,0.40328064702153643,0.9801707026118703,1.041781381396619,0.3277227479631288,0.8567241942377759,0.5513102373546381
Spin,0,-14.182004948730889,21.281186348734863,14.811376424071698,-1.622953810143603,-2.7196807400966567,1.1437535823955989,0.1499233420279996,1.1593795767168187,0.9578327965280606,0.5700918444677462,1.0070079191723451,0.4279838131116577
Spin,0,-14.190473000867959,21.423969074382804,14.83749307207056,-1.6470876943815076,-2.5628373025783424,1.233698276190052,0.37763301378531244,1.0797690213356113,1.2030276619144857,0.25063785690574236,0.9278608762079001,0.5834633998558746
Spin,0,18.139522798065716,-22.90723037635742,-12.163461192692376,-0.9283050875027252,-1.5461129231263917,0.7276043923871177,0.21998330910232974,1.0150724840319305,1.0177906391178875,0.4825980183941214,0.7289886492587125,0.6146427875566416
Spin,0,18.214741560309804,-22.676826284001713,-12.34520256524484,-0.8279225492984948,-2.09843999784098,0.7824383810178002,0.1328752367059858,1.017269920664578,0.8696991578743181,0.5030065985123496,0.81705805860205,0.6098079851278431
Spin,0,18.28690905211446,-22.729851214917154,-12.288548224074471,-0.9278126634631936,-1.6177172669771112,0.9402166759925188,0.2281193252501224,0.911896913781658,0.9916291366536916,0.4981903810078436,0.7799397114688021,0.6690982062196453
Spin,0,-11.550436078928639,14.621150217938148,11.205124689774738,-1.2578911149241472,-2.6200437308898143,1.4471386252429825,0.2170530706396733,0.8413642875664636,0.8053726108374474,0.4232183894418594,0.6448519290688978,0.5091638747216929
Spin,0,-11.574586035494052,14.548033314914488,11.054129982535866,-1.358044198825768,-2.6202496848768115,1.4129534649498636,0.2305038680971161,0.972286324693482,0.8351827091991688,0.44033056020974937,0.7800001782672178,0.6414175619499664
Spin,0,15.760235642926775,-25.26915126271693,-14.353237632129096,-0.9040314640789505,-1.7562085937750322,1.1192927706617795,0.3188199060434089,0.9992241203453701,0.8539773918589654,0.43534007075675163,0.7913387278941546,0.6382837029549857
Spin,0,15.751443570567211,-25.26228946206956,-14.053861578539584,-0.7607296977296247,-1.8046009856698995,0.9436057248013412,0.2734409690801061,0.9943202299230612,0.821551720460706,0.40431300324329156,0.8106502779477364,0.7130966639774492
Spin,0,1.7320163219877032,-6.916322512449874,-1.638585204201003,-1.1472434470050394,-1.6499632821230306,0.8686802047587948,0.147455969744484,1.1288922734307971,0.8287316429229532,0.4435498901207098,0.9129770828190454,0.735531209458447
Spin,0,1.567039735778086,-6.817386522870042,-1.52344888092037,-0.8928198512253092,-1.753705920837612,0.9266148604116095,0.2712504934502334,1.057192136999706,0.6226068446821725,0.44027803019362755,0.8886135159953079,0.7925591535896824
Spin,0,1.8555404761276293,-6.725382800487133,-1.6762292380349544,-1.0810935858429922,-1.534811252632023,0.9942201518616882,0.04776838779036244,1.042503392104498,0.7852719875492502,0.5965079085915133,0.7694318569604331,0.586077706010968
Spin,0,-13.924253515119585,1.7757370182883394,14.816844518265736,-1.0653669781679702,-2.225343787414765,1.6691681326365004,0.0778744759917464,0.9709108066717428,0.8319407668133162,0.505300268514196,0.5756830968289505,0.523257025781221
Spin,0,-13.907875825890702,1.8862710259606077,14.706635014277607,-0.8116017913605446,-2.1220829249593254,1.7243020377173273,0.2416414612393125,0.9699944961033212,0.8599331262255548,0.5435808910262482,0.708774670533312,0.6013601522799391
Spin,0,17.969484881596735,-16.04037460127273,-14.555500739249203,-0.11130760558597647,-1.2738546281374408,0.9593416806706827,0.018801747490754195,0.8811446902396691,0.776693618164755,0.4939925944265405,0.7439579689793387,0.8048370478126519
Spin,0,17.884935735847762,-16.201010632189146,-14.530583726217936,-0.3461054590097797,-1.3219079365246442,1.0624922007527582,0.27135711023910464,1.1652811087054176,0.9448952139003443,0.7555911582792995,0.6971491638079088,0.6169719228444758
Spin,0,17.862567469892067,-15.990308290328446,-14.602201474987432,-0.20909443610304165,-1.1798843731302586,0.9914430093842784,0.0031740216022529966,0.836856868152678,0.9253533128893857,0.6987719777901467,0.9010805855008117,0.7783744374768807
Spin,0,-7.696193135680267,-10.674950989979294,12.386989771748736,-0.3038620653664456,-1.3929129959096338,1.4409547650341277,0.02298191810639448,0.9860455247799075,0.8914041203987895,0.7225885692853283,0.8283165424600436,0.6354581057338476
Spin,0,-7.684148150048809,-10.497271886528896,12.3864711701618,-0.5163253141499544,-1.4053433497221857,1.3504903798310475,0.20022468642381575,0.9702137629495067,0.8548438695089119,0.6056707506758797,0.532320054529507,0.6487983290553089
Spin,0,12.112517521633626,-4.537207492255634,-11.06070860655501,-0.09189253427187632,-0.907077993370984,0.7147482412859153,0.012546108369643615,0.9583337362563463,0.6664059900687522,0.7375246524345516,0.6613417357088052,0.5979134112106204
Spin,0,11.89133707113352,-4.412090784820366,-10.916934074856792,-0.26914637986827056,-0.7780201594638524,0.8866858020576899,0.0935178455541456,0.9921126644736467,0.8753039370901523,0.6606658453691147,0.7724011456432,0.664002853447705
Spin,0,2.8552157359395567,-2.975322056011717,-3.676427375596364,-0.27334100666910277,-0.4576858347197551,0.92289592751472,-0.05269830173700782,0.7584297246592686,0.7852853521889541,0.7922446142889884,0.8602352795216573,0.709416920096317
Spin,0,2.9208022166152037,-3.0192051052620053,-3.593467503936237,-0.19517922088165796,-0.5289004848115199,0.7359153846207015,0.007010649606119357,1.0335805449031954,0.8328267821244906,0.48197553309595204,0.6862827389252643,0.6869377075265413
Spin,0,2.965772224987147,-3.0179112155849066,-3.859875752676523,-0.2521283204823648,-0.4230810105543306,0.8446243952529762,0.042938773743284746,0.8590660202509065,0.868204848964884,0.6891870102622466,0.944968325335472,0.6894688748457513
Spin,0,-5.492010855821335,-5.987616787728357,8.100881818087462,-0.20668624820202086,-0.2365032198536227,1.2494820924214831,0.021843995606728724,0.9307416817888159,0.7661711330757799,0.5326041400324265,0.9613348048166854,0.705869603500939
Spin,0,-5.617948691119788,-5.937918219130905,8.177896944520871,-0.36027630632143914,-0.1951304388111621,1.2801812743517667,-0.10474923948362573,0.8561032139335203,0.8177248793519654,0.5586656882524261,0.8507180994452572,0.4909140841796066
Spin,0,7.2834963599683125,1.3196336304727088,-7.787898645977012,-0.18324848160801704,-0.09982514352167002,0.8277972590811835,-0.0656361188298212,0.8976703844706634,0.8084395414963371,0.527707188355231,0.7938576802821438,0.5506615314100571
Spin,0,7.190068747349981,1.2447273698338523,-7.721075557331832,-0.2012904739976631,-0.02244355216314147,0.7841624474915971,-0.01826466230587099,1.187640793941934,0.9235664989253585,0.5877326266798434,1.0058718717023596,0.581551428951443
Spin,0,7.20744932366905,1.3330189250130722,-7.826307640907615,-0.2859573174613502,-0.1803443964741161,0.854911918374858,0.02268378331531624,1.0127360154013743,0.8306781060282314,0.913480121401705,0.8289200702000571,0.5771912214593843
Spin,0,2.715319378249694,-6.607193767869445,5.383240030551452,-0.2763073913054569,0.5649118241432451,0.8388076079821181,0.14768165802364996,1.1922188232820572,0.8615715306829993,0.5315445680594655,0.8921951989115936,0.5135544014838975
Spin,0,2.463137719971211,-6.3391271186657505,5.319624236948385,-0.27484630966999,0.4571375165362652,1.0870121968236106,-0.05551197872672464,0.9109158627697511,0.6672375538429575,0.7922074340438904,0.9372766309665177,0.506378439837209
Spin,0,6.661941061254256,4.521783638345515,-6.984716219332809,-0.15741866785617814,0.4428229947002447,0.772499603898731,-0.12359558946523148,1.0191578652161064,0.8144951231160512,0.7559718398518847,1.0509528084180797,0.6133442846055067
Spin,0,6.83273851431055,4.3693475282621765,-7.227212138973171,-0.4536717351916831,0.4989267064037511,0.6791456023480505,0.03368163384395968,1.0461822428371288,0.7830952551194972,0.5903631511316378,0.8580962009086883,0.637705062491558
Spin,0,3.533019186990592,-0.768238262373314,0.5407204588309434,-0.006295417809927165,0.4302551282986582,0.49446547461364604,-0.16812785340871333,0.8780947288131942,0.6310356481383725,0.4490587342703957,0.7445418801523502,0.6094714361561546
Spin,0,3.5780466612546817,-0.6720184220116752,0.5263734854437392,-0.10583608770963995,0.6213596459980073,0.6356402506986355,-0.15137802160381958,0.9799205996813914,0.9796668493754059,0.5011926287850137,0.8567445100073672,0.6234652757625273
Spin,0,3.612557707974415,-0.7753171500683923,0.6774337857441035,0.0174149348420036,0.663436784273723,0.47087985080272354,0.011503609519823627,1.0347698091101136,0.7131929711654621,0.7174219875517327,0.9657281385299522,0.5065250484439925
Spin,0,5.374747517006945,-4.443666671415949,12.438292901757524,0.2456184237619127,1.151971063483992,0.6462285703675688,-0.18066603482570479,0.9061548456150211,0.7620259847319318,0.5527471948038643,0.8033029437583659,0.4621130682419706
Spin,0,5.346563336959071,-4.573046261364199,12.415344308835177,0.08961037851515247,1.119534406138121,0.5178461815381379,0.019781696029196515,0.9556757931756767,0.9083544831971173,0.4975445136656204,0.7797345625040368,0.6086417060571256
Spin,0,0.9562333703832723,6.186279769881679,-9.096971304121816,0.26610550111555187,0.6427720309240492,0.16407918995119605,0.07446248984575188,1.0393003444775617,1.0410988752712833,0.7202501077614145,0.7935658231435477,0.4722848542258829
Spin,0,1.1057145535256818,6.275430959565825,-9.461256994218541,0.28492674624187203,0.7495010314054976,0.1101018760210997,-0.000980453241656333,1.1003740632490653,0.8231325214472848,0.6154475143920685,0.8041925632023952,0.6279880980054527
Spin,1,4721.963288605619,-176.2436202900804,1427.8144366142315,17.541843811866748,38.41761254098626,0.38322741578448605,0.021882034880736298,0.9520660105108874,0.9618492955588303,-0.22451779643800493,0.8917686058494976,0.39836868276843423
Spin,1,-4773.97257980622,163.25847888695228,-1398.7976144707316,0.8146457617092545,-1.9390001332548286,-0.9393926626650584,0.17471869668089748,1.0755590979648835,0.9534091660898488,-0.005068167420528236,1.1057976201014894,0.29756199095293095
Spin,1,-4773.910484799095,163.48008129408015,-1398.7856908232861,0.7305708999977854,-2.0966962765710924,-0.8883449377958069,0.10273531882845008,0.9499220162864831,1.1282974595523823,-0.26421676168671704,1.0318416154200079,0.19227679356874824
Spin,1,3.421094500400381,1.9246498942063908,-9.581253696024282,0.5942591354716773,-1.7146130644711548,-0.6880993709467764,0.16556928565945633,1.0671042856194857,1.1696431335711617,-0.05665736968281783,0.8666269994022633,0.2220243307363888
Spin,1,3.519450103916713,2.202353324387505,-9.689491348187305,0.46258176266706874,-1.5746682784439736,-0.6464140974578613,0.1465056140422249,1.0520836829785751,1.015295403866422,-0.164056810030781,0.9144793708124221,0.17781134145922645
Spin,1,3.4293962394673914,2.1939030053516806,-9.58438316814189,0.658812605535558,-1.7560232495405825,-0.6158294625390635,0.2711141940339824,0.9863822276504864,0.9645580829606165,-0.07258766576765169,1.1241908825403526,0.3777642791125847
Spin,1,-34.88707396236483,-2.448164112343413,1.4453306525695595,0.20708728341073507,-2.371420494607789,-0.1562685161214955,0.2849142121574827,0.9779052990357201,0.9945688991694098,-0.015547913061851652,1.129637791932989,0.22654264488794268
Spin,1,-34.66753856033683,-2.5991470989677286,1.647474987233759,0.2508705204371779,-2.603189932450673,-0.028397834690312013,0.0767912816289334,1.3358934759817545,0.9204483914323924,-0.08119807965139528,0.7446208783504166,0.4771825377439223
Spin,1,35.66296224097661,16.234027481830243,-26.077660261541514,-0.36735697737260165,-1.1985869853809568,-0.19403544632016603,0.07433997891339636,0.900950190932007,1.1538170829955774,0.05747160297197971,0.9252343728121242,0.4249548662001146
Spin,1,35.67879252308468,16.088709833309515,-25.961112980280387,-0.13882783234151583,-1.23271920030915,0.04725605846079567,0.19772078585522007,0.8762069236883472,0.9870853033236608,0.20915426124815123,0.9664317940543387,0.2549839681551565
Spin,1,3.2042575584612845,4.464261442383796,-5.679984862968226,-0.17624448164541018,-0.9856211867252802,-0.15438191538418758,0.05671760388386354,0.9682350260627194,1.1387197348627855,-0.09382443207392605,0.8931888242316448,0.1868248895202687
Spin,1,3.27463939173456,4.782219422058771,-5.630550100883297,-0.20326792171289768,-1.1081932331265443,-0.23253398575773543,0.005198302151772222,0.9637899960551694,0.9570816268844745,-0.08682916272176808,0.9969998224282864,0.21870691091088185
Spin,1,3.3492210598611365,4.422018622375176,-5.745954468911965,-0.25634537842419197,-0.8710669362711319,-0.23609490290486762,0.20579887312419434,0.9005653236080206,0.8573471100867165,-0.04910631828909426,0.9930119536806316,0.25602732677514933
Spin,1,-67.30572352483749,9.945711565252445,-7.100058730261961,-0.9434058534968439,-1.7670849552277257,-0.2036560463200574,0.23806629492691264,1.0592793957200877,1.0348150359858646,0.0370750808377103,1.0550764985354653,0.3335390232080895
Spin,1,-67.20701767756962,9.929201605254502,-7.146672334308588,-1.026564046408277,-1.7215722602571153,-0.20021625326659315,0.25855353229281874,0.9406739556601874,0.9499254785357982,-0.13406500273478444,0.9099951802668209,0.4148674345169272
Spin,1,27.43730206493942,0.6474587677822755,-4.563629205472717,-0.7867279970443516,-1.123247404196195,-0.23798893162705453,0.20718914476461195,1.1752857493039452,1.0455819603351282,0.17574023328700528,0.8382003356970235,0.4368510216727784
Spin,1,27.318132242724648,0.6752925219060126,-4.522418497385048,-0.8074177600167188,-1.3343532785998198,-0.1809579392190583,0.06818385660665385,0.9797998681278288,1.026077537997962,-0.007253259015671976,0.9175090112245163,0.29271906540458076
Spin,1,27.517758154192826,0.6184329619716665,-4.796826893928697,-0.6269488934862564,-1.275309250506948,-0.20374295164615974,0.3108055805887944,0.7799064985491104,1.0780901690056681,0.03573106680848628,0.9913852304360686,0.27115979270636686
Spin,1,-14.704772395183152,13.835165626668124,-5.851714758220712,-1.380945289255521,-2.095847862192058,-0.14735973561472354,0.3335655474374134,1.1942263453277575,0.9827841020788645,0.1290230001834645,0.8083591004214983,0.34739388230256474
Spin,1,-14.964402872003053,13.769229889854913,-5.482949606117584,-1.2794865956565942,-1.8711697820671105,-0.3648527328260509,0.21249953582816314,0.9632698235870606,1.0074709122648766,0.20592631285968038,1.1504043177532883,0.34328133439750746
Spin,1,7.138006859133484,0.1773108056478011,-10.391084131974441,-1.743991639625516,-1.7151736860261506,-0.1867778092197113,0.2092170615384929,1.037199608133349,0.7915807492192846,0.16198357930153165,1.013747362250492,0.3710112629678125
Spin,1,7.110706499950419,0.24627302701050602,-10.401458759581745,-1.6133958551348406,-1.6115760714124105,-0.10754176912277891,0.23499993999178254,0.9593708762844005,1.0626613584039935,0.2144065349535671,0.8305894598805939,0.5200465993903279
Spin,1,7.009537329300048,0.2568483224040861,-10.473738733164165,-1.8579155550112407,-1.6082652378095013,-0.3560587460592244,0.17243989827072195,0.747416853895863,1.076293773306848,0.051743096917774664,0.7732348865152203,0.3265785102871125
Spin,1,-64.13367325369633,13.392598083386293,-18.992900516040578,-3.2989770647105945,-2.8238563869501823,0.1771871728077717,0.18891218244242516,0.853178579126616,0.9454880350993642,0.18523793734116809,1.0118931604526238,0.3266603523690755
Spin,1,-63.96066120101795,13.413444200386834,-18.786679159507518,-3.0911578163943383,-3.2637003891605074,-0.17980459529579734,0.1762263683154617,0.9968661782559428,1.0071569024076386,0.22818353989491308,0.843056950981564,0.3493444826325818
Spin,1,17.406947617584724,-3.8565037338740376,4.856996718819005,-2.1613509153316257,-2.350281417310603,0.6342275470672998,0.1685139590229493,0.9909114434186583,1.1580205943264814,0.24155439779836155,0.9306637971279854,0.4919281645139318
Spin,1,17.456810613910445,-3.993555435240878,4.7825367410866155,-2.06883972138944,-2.4260235665508456,0.5955234997616254,0.10443833207529671,0.9649160925430543,0.8462983063275219,0.29804981604104347,0.902106807623205,0.3842328194659251
Spin,1,24.103918766248604,-5.92579453552859,6.540369984604337,-1.5792073681072771,-1.9775271751641381,0.4198301621223026,0.1724089309220972,1.051725238364472,0.8150486696753934,0.3093999697214491,0.9917355729751682,0.2947262750050895
Spin,1,24.234220969060793,-5.863816474622348,6.5631926948963875,-1.703725534920294,-1.9641909652915175,0.6628469099545996,0.01943004614850896,1.0863592559818498,1.1771935084409209,0.34267461394979937,0.8584288716623664,0.3623867735858024
Spin,1,24.167167799389446,-6.052712257743921,6.649804363016085,-1.6705593444337818,-1.8309238004343726,0.8241307496983865,0.2955267647764444,0.9140435170753438,0.9205454636652204,0.4898370998231043,0.8121446764534576,0.5969217527263355
Spin,1,-43.993248900378504,16.17812527722887,2.4318624464872665,-1.6859344756807382,-2.2519339670910403,1.6327144738023307,-0.015133211221895815,1.1489917803756367,1.054227472829711,0.31482328029153694,0.9668498264151761,0.5242704872752676
Spin,1,-43.966087916347064,15.989740160226418,2.234897572679117,-1.7687635924472231,-2.4353072629701953,1.82382774868986,0.002591454533667825,1.231305351476086,0.7776985459088988,0.41156931527757434,0.9787811000066153,0.6134549717319339
Spin,1,8.686604676852285,-12.239635675461612,-2.7415447922992366,-1.3554234022504494,-2.065644352396283,1.942571801370727,0.15766847721817706,1.0550015761693132,0.9057679180040931,0.2630878235193946,0.8197315473599049,0.3586255159361334
Spin,1,8.369075800357436,-12.11059934693547,-2.9407367870099383,-1.4863067652841335,-2.203943745202877,1.8890536357799983,0.07240503504550383,1.0840783423908553,0.88387947237088,0.7414820576249179,0.7854386392993001,0.49970337403161774
Spin,1,8.442062988436104,-12.095357760316482,-2.8729814400362557,-1.5299089272060318,-2.1555655939869687,1.993408897005477,-0.17240945270132513,1.1084131479614043,1.007254893209584,0.6252805556298142,0.8446173219974711,0.7021015339998872
Spin,1,-103.99827266972781,8.350648663063142,-20.97203392925023,-2.14705332215753,-3.907214816431951,3.456567569321003,0.10871304927420188,0.8812528043411303,0.8231337880906006,0.3571067792406497,0.7560700527558348,0.5537757119152659
Spin,1,-104.29866432542981,8.402031717250946,-21.121905189677793,-2.34559917385222,-3.8053522192492073,3.592868798865213,-0.029651407680161054,1.008988053337072,0.9544905904125192,0.5633358515668081,0.9168267194084287,0.5711328119725131
Spin,1,73.7578395152638,-20.95317425652815,9.859685990272837,-1.5919640753975401,-2.5844023923793253,2.738413278777569,-0.06034598487278948,0.9893113775258158,0.878001821916897,0.457650838912981,0.9271697455223673,0.6854112902447783
Spin,1,73.86898597634243,-20.575897073785413,9.888702601977092,-1.4128534416094694,-2.7089940129712238,2.822356073304668,-0.27393075512221743,1.0796583178602446,0.7624643558378034,0.5999858164730268,0.8445850106362216,0.5743091867022148
Spin,1,-9.335900408787548,-5.333830755602693,-2.911086824479245,-1.642328700596151,-2.519145644451033,2.9170904758079477,-0.010111052099521206,0.9474381279444791,0.8877705014502429,0.514654017778515,1.0639640284809566,0.7657841144077101
Spin,1,-9.371574885253096,-5.3644952612444285,-3.028959811658072,-1.544181995666494,-2.6849229800984715,3.0647442530846556,-0.15074358912794145,0.8992720247764925,1.011031812808589,0.6427607266132467,0.8185221702955591,0.5258447496543934
Spin,1,-9.54456692907397,-5.409824493729204,-2.909676919970968,-1.3782522298500435,-2.818557406595551,2.869279979296942,-0.13631361067158268,1.044646657096678,0.7495928001617924,0.41581749878906105,0.7395970861869988,0.7127168186841415
Spin,1,-64.37777317178848,-12.370579309174671,-15.421044825033006,-2.052477930584023,-3.4922332904859053,4.32888569423239,-0.15871850165447754,1.1605015623342028,0.7437782179855332,0.5627973905448943,0.7713211842272447,0.47533598977285535
Spin,1,-64.57845552037226,-12.463406006036744,-15.440266606699318,-1.9120381548161591,-3.4366381976268454,4.33645377194681,-0.2645792856983827,0.9043904558999364,0.8465942852248264,0.5585061984840405,0.8854060455639048,0.6667691544682206
Spin,1,113.61706397019677,-5.161053882551025,28.994400152116793,-0.8256908005959275,-2.018493195819842,2.329455155766149,-0.47987833012174846,0.8625713645685487,0.9628034311267165,0.5090238234461714,0.8902624579991834,0.5279262129348146
Spin,1,113.61145387907028,-5.131930271909958,28.962113343547717,-0.9053500702979639,-1.9655542450576313,2.512365090097616,-0.10906857176294055,0.9499586479158285,0.6752044160557842,0.6580242208256014,0.8039635247945369,0.5399225658538239
Spin,1,113.76707560468759,-5.2385583238713025,29.08655413573018,-0.8900374047298283,-2.105619362067941,2.5811627799138557,-0.44040103155916854,0.9669776751343374,0.7445123387963278,0.6019958991828496,0.8182659523104717,0.4664325700679189
Spin,1,-41.79716290809008,-11.683827562710746,-4.509148905654729,-0.9695268702218337,-2.4761981733314045,3.236995205292129,-0.6056442481119292,1.1607379974991372,0.7260878649551192,0.7732672737055132,0.9873910012120468,0.3441763609627697
Spin,1,-41.850332891594384,-11.429612369875828,-4.704499065990552,-0.921440743582434,-2.5363124318385513,3.442749446560224,-0.2952094605582044,0.91625396477459,0.7181788062683838,0.31160533010674424,0.7192821410648782,0.5610669336060143
Spin,1,20.962110503552044,-9.339508611309977,-8.242005662548612,-0.973311115112529,-2.170280223043443,3.2267483210952297,-0.4120135953567399,0.8208229739644024,0.6423650802669825,0.5429555674216003,0.8403068251379033,0.5678322341049502
Spin,1,21.039845981894832,-9.315428244540424,-8.365036699478585,-1.103252128009412,-2.21816076449752,3.2316825865589025,-0.48418807741098613,0.9131188099557744,0.8469327524457998,0.6234393155765305,0.8915616713537041,0.4466982739604598
Spin,1,11.614804802071857,-2.7420915817735394,2.596655920989572,-0.9622057613595605,-2.3178688401553416,3.1244791841893464,-0.409305427562381,0.944773881307252,0.7209518047531949,0.835329523063452,0.7342507285591137,0.36699010906047064
Spin,1,11.490853692652326,-2.833776690381472,2.5528327620957745,-1.0800130347291523,-2.1423353174039264,3.0394731683934513,-0.4368219567908909,0.6345406411505634,0.6288610289912104,0.8277382770193179,0.9040423399595661,0.204956957740596
Spin,1,11.545383252974712,-2.6449965575256233,2.558974025967612,-1.0335659943622195,-2.095833218996355,3.1795844670559497,-0.45382531390029346,1.0667875060993977,0.6318573067049873,0.8110625317236042,0.9637951377423585,0.4625185838032493
Spin,1,0.7126260306892692,-22.57549622209633,6.566692306613141,-0.5993952471265649,-2.284057546419453,3.0708010366172047,-0.7921005133927563,1.0118435454157217,0.8304494285822903,0.8250548264355466,0.9540558991533932,0.41054905891885746
Spin,1,0.6160228883489508,-22.52697084214521,6.387485236813273,-0.8988312215207674,-2.335833294818395,3.266740425461517,-0.5172600915008282,0.8601203695507543,0.5977629116157092,0.7396542219857686,0.971936434573568,0.2300468922568417
Spin,1,25.555985199039387,10.280344070986752,-0.02608649829450614,-0.42266596527109285,-2.4844828074208536,2.8201180908280645,-0.49158134097090067,0.7708612130454772,0.688934564697416,0.8725628529131721,0.8947081566210501,0.4048859281164606
Spin,1,25.623308344079305,10.005299920190627,-0.0752070263336624,-0.2286555253194768,-2.383292331653702,2.8889525076695173,-0.6266835111541453,0.5975679636474096,0.49819294303594125,0.8198464589612247,0.7584877802115053,0.4022914008738262
Spin,1,25.641323658674576,10.283538579976971,-0.07896649274221999,-0.34387255362255525,-2.5168085760385104,2.9559083604541945,-0.6899827414916271,0.8673238284153303,0.5217291782165843,0.9726263802848831,0.912030693966745,0.30118450700589977
Spin,1,-80.52453491960254,-31.352661477696078,-21.972554589193408,-0.1483960779298189,-4.709342319830733,5.287629146558573,-0.6616574608840722,0.8064141552857874,0.49669432112497847,0.9264506323949104,0.948218890343999,0.19973056825161645
Spin,1,-80.56798139136123,-31.453345245660728,-22.263778668966964,-0.10463244788601055,-4.6656195639611715,5.198961424207755,-0.5115424175542743,0.7812901084489797,0.6185538020146812,0.8334676526184852,0.7830251597000801,0.2750461031711781
Spin,1,69.66254421057592,21.04956604500514,16.971044270038636,-0.34272956436270285,-2.744634886962242,4.0081185013146285,-0.7430986943198219,0.7227919200232016,0.22503756155217622,0.9534472645987314,0.8814969316133937,0.1412330663306471
Spin,1,69.71828802057686,20.96183385723094,16.87254542005405,-0.25087301308504256,-2.876996904501318,3.7572116688410495,-0.7646533581629777,0.6039495964311018,0.3487454565629425,0.9041753481006035,0.9264137998761974,0.021317960153574955
Spin,1,8.127712219351832,1.332392310835712,1.7628990129994087,-0.2616578117493318,-2.6335486104793593,3.6946525541532615,-0.6873356288153609,0.7962871117580006,0.2418862232210429,1.049438608767021,0.8996525902549248,0.23756677268704052
Spin,1,8.205058438395021,1.3255675960502997,1.6847254987611018,-0.30814884134458703,-2.722077363686285,3.5322365625054104,-0.5902316374049119,0.6533242698425183,0.06710579408935621,0.9754174744759982,1.006335052364493,0.06094426718037238
Spin,1,8.151332680625858,1.1781200608694438,1.780315849441406,-0.3037787756095245,-2.471261366995007,3.7419809963557937,-0.5875000459599578,0.6989827936047271,0.3084030905979667,1.1050166729897923,1.0670196639737977,-0.014154152196899847
Spin,1,-6.402100310769329,0.17965242316737795,-5.279085321327893,-1.0240523740272107,-2.418204904655396,3.150678259018588,-0.6970176113642325,0.6996093756263995,0.1407620322585263,1.2477802045256996,1.1209190086345378,0.09931264771843418
Spin,1,-6.2988554627418285,0.10295576606349915,-5.3111693499992425,-1.0024904544718758,-2.5476051191349383,3.2884423348385843,-0.7305921114928201,0.8015218619721245,0.182819981898385,0.8272296354375199,0.9598067245384976,-0.0207269914731842
Spin,1,20.629502179577155,1.9595531534573676,-1.1007987718113992,-1.0523256924189768,-1.6571865431341766,2.6734365719464237,-0.6759552971700827,0.6183801351677116,0.05498474825067008,1.2010229622434716,1.0085788521855592,-0.04973835085419773
Spin,1,20.686852713310678,2.0648190407858737,-0.9475645402702866,-1.0889418297817957,-1.7712964443617152,2.5787144126548815,-0.6538908433262158,0.6378517174311943,0.07388916508219287,1.173900487270917,1.017586781979006,0.02236991691661651
Spin,1,20.65076820370584,2.155506798070185,-1.2705658474948698,-1.007161540840065,-1.709904997985655,2.7612075931022293,-0.52802057590766,0.5449791283906386,0.08543450125273991,1.0552775947166129,1.0940766774849824,-0.11895267723850919
Spin,1,-67.8391845226633,-40.946562414724724,-29.76906015165845,-2.2607345828253154,-2.898593796337185,4.583583572177176,-0.8024677824957898,0.6900266427455723,-0.22076451925445145,0.9998940724116085,1.1805010962993172,-0.12329485033128129
Spin,1,-67.80103879460431,-40.93721477983352,-29.751158730755517,-2.2221834525821937,-2.6738361980873853,4.667623378663885,-0.7660362523063813,0.6414281168813254,-0.11395950711984444,1.015904289966275,0.9334895666821952,-0.20656639692925222
Spin,1,94.28314510066899,42.49580415827238,32.795331925680586,-1.1080164871010878,-1.1932941912661248,2.215139360428766,-0.660853292742789,0.6111296632789246,-0.20696200731158998,1.1268891530819545,0.9233948093835425,-0.3898967264986205
Spin,1,94.60538457219442,42.6222155880463,32.8687137523628,-1.1776512900592793,-1.2834213394120273,2.341481921138054,-0.7682659289513727,0.6821978737119492,-0.22732493781395513,0.8417106684128973,1.0635006760385766,-0.17242516411543768
Spin,1,3.127038882884784,0.5655444015559212,0.41011020083699057,-1.22935410250729,-1.1665243689494351,2.4208516061568446,-0.7510088744245416,0.6522523549735679,-0.300792178731378,1.0362885907003134,0.8397504553943976,-0.2776888813276695
Spin,1,2.9749720438858596,0.6222544578252476,0.557909541535494,-1.1927377346695731,-1.3358093707669199,2.416644499616547,-0.6301098840587431,1.0021658423113224,-0.31534635322040505,0.8442324250384622,0.8932623107908786,-0.46733383923941985
Spin,1,3.2309356841634322,0.5417773450867324,0.43348961038023226,-1.2984926836942001,-1.2928167059285203,2.3430516860396926,-0.7407901641192866,0.6521287696550782,-0.13410314898838,1.1125047754646649,0.9582448333057494,-0.2454774406479251
Spin,1,-19.386094942018772,-11.373129977134942,-11.1514596847224,-2.0106268270884318,-2.1536563402989155,3.824548846967094,-0.6769674895120016,0.6115155391453937,-0.33940850166899567,0.8108508514135306,0.8340525133987793,-0.5499498545796192
Spin,1,-19.201477211305516,-11.297217618450599,-11.28615062531755,-2.162103219224867,-1.9787077283929415,3.871124828787806,-0.9504318804563925,0.6400132489066288,-0.5111031037113829,0.8934950447966727,0.8955310207815493,-0.5257925431532385
Spin,1,35.16534465499176,23.031052762222796,12.76669451500715,-1.2935911273081808,-1.2681088714963522,2.428457627088699,-0.8390846932953915,0.7327895211565278,-0.43740623860857186,0.8292430040785412,0.7914833097474696,-0.5147572595224162
Spin,1,35.390533763461704,23.208659542390468,12.980502634749993,-1.5258455907135087,-1.5347618548071698,2.552856720167612,-0.8241509367861597,0.6261785100731824,-0.42263350246352155,1.0583264385428457,0.9520746819804006,-0.2647429117957794
Spin,1,35.24946191211894,23.153593907679465,12.857568786144627,-1.4829764369541494,-1.3847747545524507,2.5084042467716006,-0.7837172375961441,0.7428828524714324,-0.5198222325986205,1.0406717997598538,0.8995310933685955,-0.7398428266247906
Spin,1,-28.694511892152992,-16.8858690480215,-18.580987275087228,-2.2196728444728224,-2.474658323910898,3.5428292438317603,-0.8397550701065206,0.6196917264918758,-0.5886850323424151,0.7606976668032425,0.7342940093652146,-0.5968197412201955
Spin,1,-28.532157920865888,-16.89327911942245,-18.63275416144105,-2.1271430942591163,-2.359759512387518,3.528392860268079,-0.8402278314180499,0.6368062085643262,-0.3113344567538443,0.8181953191238276,0.7121736080862513,-0.6541789268581564
Spin,1,23.2549641434332,21.411659151824527,12.668606398412226,-1.470369363633433,-1.956841131594044,2.4922695280922356,-0.6670218875745407,0.6955124351767266,-0.6930639010902251,0.8405426963721552,0.604676630221846,-0.6422825479014498
Spin,1,23.14341252359037,21.393060543754878,12.5834890836142,-1.3666224298295837,-2.0567651632740893,2.0770751067009927,-0.5964435352092836,0.7636376808344625,-0.7098277800641358,0.7846187527984023,0.6587072215719967,-0.5753029166539116
Spin,1,2.004738109758856,0.8272139032981325,1.4659975645730516,-1.3822007829198417,-1.8297613916057536,2.2108457171507485,-0.8348583757145586,0.7506554369367857,-0.7829011367166908,0.6528348587018284,0.6526568393240613,-0.7440539682184945
Spin,1,1.910580354686416,0.5887423830525473,1.3701612065949162,-1.232740568602663,-2.0005141312604366,2.4196435694930654,-0.8335189827457012,0.7344718999237922,-0.6978953785639573,0.8187873198048016,0.7377128102516536,-0.7122537135388712
Spin,1,1.9724750653903151,0.7009579255676783,1.2856561848914028,-1.3276177551130968,-1.9229698511472282,2.3192229972113534,-0.5843129231140849,0.6277182900146107,-0.7820074045317816,0.6686260903137362,0.7579309217782495,-0.7474374871434856
Spin,1,-45.368358349942206,-0.024784345954174433,-19.912970794838646,-1.6206804892644155,-2.7810296840294764,3.5980635718589222,-0.6326937631370838,0.7211421597139898,-0.8924018431227387,0.5672933770080838,0.6245643416450263,-0.81655705392841
Spin,1,-45.43685572919726,0.015907520062960326,-20.101181063904967,-1.8837029485497565,-2.6847818898588067,3.691928909472887,-0.5872325274554085,0.6111310616977228,-0.7786920704250209,0.6515704025209881,0.5623147293671165,-0.6905003219231062
Spin,1,34.93589541327443,13.382139176288977,17.37381417035081,-1.5288796764012977,-1.6918536320340374,2.4441522243205918,-0.568723495172633,0.5709604288810386,-0.9431484603619056,0.5159585840534694,0.5123156893416514,-0.7643089572639579
Spin,1,35.02686233714105,13.258904485182564,17.519685661948625,-1.5610745183462809,-1.7339929113476262,2.550759858241723,-0.7372884694252415,0.706518325616944,-0.8238654024078331,0.511962104992817,0.549585939690213,-0.7706585546187066
Spin,1,35.06168876529494,13.283430189343425,17.49345946528866,-1.2089643615062087,-1.607519455332071,2.521990243865486,-0.6263465962507224,0.6240307518618553,-1.0647995633055147,0.41757193879756294,0.4103294680244566,-0.9003134932437185
Spin,1,-34.67875588092916,-7.7450172586083,-18.52113304315348,-2.3271081007794514,-2.7529054826327592,3.854255432838497,-0.4466277867224839,0.896546184806659,-0.80359387970768,0.42096953683680294,0.3798255552029678,-0.923584135176177
Spin,1,-34.82815509602405,-7.7183301498464845,-18.74084895296646,-2.31598123194331,-2.610886606057468,3.4947318589565306,-0.5871527112624002,0.9502482205679188,-0.8571953624838659,0.37315203020522625,0.46557595484382497,-0.9427116339171762
Spin,1,38.82609190447405,7.745929878959775,18.03782791434478,-2.003236502277833,-1.7692712030430966,2.3002705518085693,-0.6919751548448414,0.8064186632281231,-0.8185707540550277,0.11487323330947502,0.20125034424906507,-0.9285890877752115
Spin,1,39.09480987188152,7.828252716585172,17.934651422160755,-2.1852668798864014,-1.9109695894214864,2.4387993189218644,-0.5811339672129184,0.6950607641149994,-0.9791259852561819,0.18692759282944987,0.32074533120203313,-0.7468683448037055
Spin,1,4.048279765208015,-0.6343972359142965,3.6979635159061393,-2.0388720791803117,-1.7725238039165574,2.4342878304782976,-0.710992619018573,0.6370146899627306,-0.8424556880992975,0.27611484260562963,0.2902651563676956,-0.9954395165865976
Spin,1,3.960223843300288,-0.7229632044902995,3.563579571654832,-2.1522481755253215,-1.870893178701584,2.379356362060206,-0.6503609754069207,0.9143260305245932,-0.9728156115308392,0.3266074540813131,0.3401419710979588,-0.7102739202133894
Spin,1,3.8780529458458055,-0.6534284359057545,3.511055997954329,-2.0962491992126226,-2.0324929340222213,2.437473274855513,-0.7435091218193992,0.6952320839138967,-0.9664161600081114,0.278338500299568,0.06975317622749211,-0.9277837143853599
Spin,1,-26.041960898700317,-9.825690027576721,-17.130993992949737,-3.469178415197785,-3.1225205467222987,3.9997693416417532,-0.44973481452440633,0.7583758676750145,-1.0171118464283504,0.12627487458801578,0.49876301598774614,-0.9065392071974737
Spin,1,-25.795992795524292,-9.78324165986351,-17.080103713526356,-3.484523686927707,-3.26885001033334,3.87800512991308,-0.42085078475012183,0.8195294308798989,-0.9691103191692672,0.02700938428587378,0.11742426275490103,-1.061537593093626
Spin,1,33.08434909538513,7.024510007528464,23.34596431040878,-2.17419883970883,-1.6881669387614184,2.628203961009074,-0.4201628710291633,0.8801437012576776,-0.9058404300498727,-0.0705364023989936,0.2344017638178072,-0.9296305267209495
Spin,1,33.119251602722734,7.193518442212139,23.308824662443158,-2.068832544755877,-1.410854958561443,2.677812670650843,-0.560754179844619,0.8057574192350693,-1.0953727911371556,-0.022779790944580672,0.31794497077727607,-0.7300982611598983
Spin,1,7.9920824984330725,1.5424925267956402,4.837253782620987,-1.7913077513590023,-1.390759011329025,2.317497120362027,-0.6012072533375143,0.8795621103609415,-0.9142992620272448,-0.08428693844123783,0.14486555182381367,-0.9586214590570121
Spin,1,7.9775403774836215,1.6247015592752119,4.838406486498066,-1.8022988895002772,-1.2729371799545424,2.4740793421974567,-0.5856180520473007,0.9174328942835052,-1.068497135298276,0.0451891303723502,-0.0027838586248893488,-0.9507269791757847
Spin,1,8.159272910661874,1.5922792967428783,4.698339268421085,-1.7243078499238993,-1.5345957246717572,2.2821165915841686,-0.32064361787849593,0.9458916978091987,-1.0650210254024695,0.09794602300945562,0.16837483915910237,-1.0948031629498274
Spin,1,-18.322659154208136,-20.008069041882376,-10.791142625921976,-2.4589754919815423,-1.7785953390077651,3.495873792878517,-0.5337067868540414,0.9443733078619394,-1.0509696850648724,-0.21047389906320776,-0.08525968431485934,-1.0509548969680513
Spin,1,-18.22050303198001,-19.666906990126684,-11.138654867751184,-2.6261679710023134,-1.7686742287985697,3.4959772119952457,-0.4665955285912713,1.0651083489061377,-1.0864521442820863,0.12375127830447286,0.20759020154288582,-1.077195228706217
Spin,1,28.556213200609626,11.253118132387504,16.391315516068335,-1.859377466613461,-1.1791722770961637,2.2829339957423285,-0.2619437535191596,0.9434849115278994,-0.9641676913854149,-0.16099931874639,-0.005435481079633384,-1.083953132485178
Spin,1,28.412210607387788,11.42629140446264,16.658274317000377,-1.860881462490277,-1.281885069486113,2.3508320857657146,-0.3843041167808218,1.0549637597758514,-0.979577671834168,-0.16155862274040422,0.05381860995888584,-1.0347367423672604
Spin,1,28.467107894398154,11.297817453818089,16.43415494051564,-1.840973131331971,-1.4035198490473428,2.158416070045793,-0.3560342432785351,0.7423234040011504,-0.8177778152613215,-0.06899404831106858,0.05512971870201279,-1.1111016142760919
Spin,1,-14.998305781958194,-34.95037212736331,-6.279162169673596,-2.8358503404769517,-2.1920918299571692,2.8265944497103237,-0.34221692166298723,1.1025434909939609,-0.8062964596867809,-0.195634898961085,-0.13646260091534504,-0.9325327287891658
Spin,1,-14.946278076004456,-35.03306265987311,-6.418768258555302,-2.5291020433120974,-2.114276815892081,2.7879278766923057,-0.3716667044963976,0.9363542448980787,-1.2066334346559633,-0.17359283617645513,-0.13425641190750637,-0.8894473453308169
Spin,1,22.066353909621547,19.262381644765245,10.53022035243912,-1.5397760021173248,-1.3394710392381879,1.3398918519836993,-0.202478888547663,0.8501716527266836,-0.9666205263296774,0.04014159838563966,-0.052382770498753256,-1.0530026000565633
Spin,1,22.03542057498926,19.08592946676023,10.613562300210027,-1.5950151190087445,-1.1343010700907301,1.2040448528377192,-0.05031499061295719,1.1522075670942424,-0.874738987361665,-0.14570851121320225,-0.05195453485794788,-0.9681200025594212
Spin,1,22.01906485533797,19.1549872853094,10.662914020260832,-1.6894756833927511,-0.9836154440541606,1.0254534654545466,-0.10604375096591306,0.9636151847751178,-0.9932660185303681,-0.0853775579820574,-0.09194252357934513,-0.9571833739612903
Spin,1,-13.78492995694431,-21.666352262006985,-5.949190366266321,-2.4182070101743305,-1.447381145513808,1.6370628875503734,-0.03896252620717808,0.8857310571070842,-1.0373622905381112,-0.18912402180750398,-0.09846072132223554,-1.0900589713167723
Spin,1,-13.833542934978915,-21.528235071344607,-5.905432602816083,-2.2903705763431765,-1.3367736431154393,1.5707392536235572,-0.35321290080211887,0.9261111514890983,-1.0120225398420035,-0.24513066944981593,-0.20002654663363362,-0.9472456915439017
Spin,1,15.292706752881541,12.73446093366018,5.592977500582423,-1.9833444750427787,-0.08382037346968199,1.104452825099481,-0.25326062002393557,0.9125171526902837,-1.001436251209427,-0.1769573167993083,-0.3299098647509019,-1.1081941473728523
Spin,1,15.320753347558892,12.422603032942966,5.617565818741127,-1.974706287091464,-0.013917904699975461,1.2034896187072082,-0.20287692525096523,0.966197511220256,-0.8487080018110127,-0.17748746143137978,-0.14955847548343507,-1.0399208592599176
Spin,1,7.10673874978532,13.43458883827832,4.493044558831611,-1.4714618048809145,0.001227085684025346,0.9456119928164249,-0.19895265448687405,0.9520544398130303,-1.0236697445997232,-0.26230912181458255,-0.22045440600123797,-1.0386689453833764
Spin,1,7.125213925968072,13.563134990149162,4.62640314432896,-1.408468274073654,0.010809042238943002,0.8146553048316963,0.0046914879714825,0.8554529979428144,-0.9627751584063379,-0.25893620504791365,-0.17307008617535063,-1.088105752786827
Spin,1,7.017919639737437,13.515956863740396,4.631307585414168,-1.4185557969454987,-0.08342488561776962,0.7485855149138678,-0.33440427325965394,1.1267390903784007,-1.0314564429705388,-0.3960789257523628,-0.33683618865083986,-0.9486183624286421
Spin,1,-9.96696536000832,-15.233725424371714,-11.099548876852232,-1.090853394507118,0.23531725193650366,1.0762719711662312,-0.19005062562360692,1.1079636503392345,-1.114166797372944,-0.438285624066177,-0.2671287493650535,-0.9827316384572454
Spin,1,-9.880779077394529,-15.320873341811565,-11.28701373123811,-1.1777710371450414,0.27920321408039767,1.1661087829267835,0.010778286156925776,0.9613026272792061,-0.9079858833187736,-0.14301519661258075,-0.23136840316259785,-0.9267445006263514
