Set,AnimIndex,AccelerationX,AccelerationY,AccelerationZ,GyroscopeX,GyroscopeY,GyroscopeZ,OrientationX_sin,OrientationX_cos,OrientationY_sin,OrientationY_cos,OrientationZ_sin,OrientationZ_cos
Run,0,64.76535902006584,408.68308774000354,357.24123046482515,-10.427558501252205,-0.948842093970069,-6.757906243923227,0.13481217146899993,1.1341920417563445,1.0705671719462102,0.02883373400477946,0.6303809530997129,0.7921511736274979
Run,0,-38.90091572847349,-372.9145509479323,-270.1482705109202,-0.47186429534543717,-3.8287924259588495,-0.2807108087949939,0.2180279935596962,0.8897845871103939,1.2485946985221583,0.14183645215570687,0.4940311653863604,0.6487042747057876
Run,0,-38.91476128981509,-372.94896831224685,-270.17852588021145,-0.6582966269715141,-3.970146686028078,-0.42725532234033126,-0.0035175661088603094,0.9621578235441708,0.9536167346030557,0.22524091131398094,0.4467389928454594,0.7284958347795246
Run,0,-0.7964208030375813,-3.3726704112642953,3.1138718650327126,-0.38704871008134645,-3.9474055609808163,-0.46729775972794646,0.3059876769912657,0.9274601014281344,1.002089490791262,0.31352355528524806,0.5376493294001784,0.743549227691103
Run,0,-0.7362846093440145,-3.5020898414428663,3.1734355706616295,-0.2833077021472823,-3.627527482379663,-0.2678091078040608,0.20012243403175684,0.9016638352518164,1.119648770719682,0.285416217394914,0.567487847938227,0.8490543031849511
Run,0,-0.6984165214035526,-3.2958150139229963,3.2192460819835693,-0.3382795139022593,-3.6733244831965504,-0.2738902428504258,0.2142285139246699,1.0389572920171406,0.9543454625729108,0.1589438385310272,0.5038314544283151,0.7502364385933845
Run,0,5.5111210916458875,6.866388712720912,65.08601431358224,-0.12925252543378346,-4.486388277666662,-0.5746389475858953,0.09162291066376385,1.0006394842459834,1.1079962245170272,0.09726375096651785,0.6192875493069421,0.8308082154382662
Run,0,5.698038358205811,6.8175052204567965,65.06184737515721,-0.12854543276934202,-4.286845994527156,-0.382524600493364,0.15864333187129215,0.9453491425292813,0.886423014693656,0.2152819708634204,0.6804731254577142,0.8820742003357325
Run,0,-7.260852381543176,-15.774419053365346,-33.72305632703271,-0.08960037103455581,-2.978298343736865,-0.5827450622168763,0.11813817588598839,0.8508732029205434,0.9333654302988347,0.15220214784141428,0.6399471277320667,0.8344366369979489
Run,0,-7.05176262641,-15.839414752630798,-33.66099374825852,-0.07796043199388447,-2.898150274881711,-0.6010293571016679,0.26279637731808736,0.9846609466965739,0.7917570588460685,0.09836866604533859,0.5760049053468141,1.0726729405838926
Run,0,-7.197076749561457,-15.856392886056542,-33.458881426122566,0.029485485437401954,-3.0673060404324755,-0.7116471510486646,-0.02556981236683492,1.029866394031996,0.8579443967555394,0.35750387878029855,0.47666092086366957,0.7267728542204077
Run,0,12.249805445976682,4.038701867278563,79.73109808860153,-0.03375837224521691,-4.571252356082607,-1.1927547107573406,0.1650060433366972,0.7015526499251306,0.917478554602983,0.4617099302125224,0.5056778465510321,0.6204226472979009
Run,0,12.313250064832395,4.172773661994373,79.52751886871262,-0.019574384527691877,-4.64446608623211,-1.2375461107471069,0.28605645350401343,1.0794074365552244,0.9962644000559024,0.6206760790879305,0.4152322290525314,0.7922131435868306
Run,0,-18.02572181984985,-14.982978734770043,-82.51398556459455,0.22322700952305846,-2.1783298229059485,-0.4935912190428799,0.1799344252515433,1.0250657132801992,0.9615043244102063,0.38980286475492354,0.58997336413091,0.8795031249166425
Run,0,-17.953614336787496,-15.051574298226079,-82.62186351922517,0.24719083209362042,-2.7081524787077713,-0.5834479532810921,0.32024910216118696,0.9343642038685599,0.8423554759066277,0.22674857612690613,0.5416012189249462,0.9913444066781825
Run,0,-1.0643105548642764,-1.2855121902414173,1.3136971328339828,0.268574043790635,-2.585443035108339,-0.5379196292268114,0.09782834373621382,0.9252682206532065,0.8414613138285201,0.3329057950362672,0.4414161943037728,0.9641938177356113
Run,0,-0.9684284429603155,-1.1761181666701963,1.4537253954441571,0.3573743084700769,-2.4798538797695886,-0.3813352763852906,0.2837675679852267,0.8659313034444883,0.8425607465756236,0.7269996880920979,0.6112916070785557,0.9304849466820766
Run,0,-0.8450202468785294,-1.0541526243291273,1.4396939639360482,0.21379617531712697,-2.376539709050307,-0.4719344164222734,0.3936328770533761,0.9677484915782002,0.8332255204233897,0.6059509819801014,0.6433252984683001,0.7588736869682285
Run,0,-7.7330192151086345,-5.094456033747515,50.16717594543,0.8859381816288697,-2.132867911793284,-0.7879622867564816,0.25610393898627637,1.0976972153092779,0.8960148566668489,0.5960580203104374,0.5048026812897713,0.9267076330806406
Run,0,-7.692010762081097,-5.099255172695034,50.0300575833776,1.0000365301242666,-2.282899918748355,-0.6859091571529115,0.35095236398011936,0.9292569363550525,0.8166872213033874,0.5276306038954456,0.4966465506492919,0.7442366884571617
Run,0,-6.129983332920698,-5.286618521311419,-56.732079511545074,0.6489455273828479,-1.0633362312933197,-0.4151945499510073,0.06952478163821033,1.145313828583433,0.8329246333665727,0.6894535674996563,0.5867863855101372,0.721538683625058
Run,0,-6.203158311711194,-5.373025238637459,-56.712113789539586,0.7893273803787704,-1.0885875360749857,-0.3631861342323113,0.32672070328741776,1.0160269286279784,0.9017465556817604,0.5159971506253577,0.5273815695199264,0.8890418637364346
Run,0,-6.366120503032862,-5.401270674029809,-56.652841853994374,0.595838982128334,-1.0667331171872079,-0.4806231058488881,0.21621585365015147,0.969635460283629,0.6450115347808633,0.4829341322773556,0.42465234316676104,0.6321752280497543
Run,0,-3.1948188348386766,-4.639320542575817,58.399032806420884,1.1516139344945922,-0.9271341696403732,-0.6561512458995917,0.2418323673609174,0.9026875616442879,0.8239410430860925,0.38854339961812345,0.5227026920269697,1.0030031668899173
Run,0,-3.207528962328932,-4.530559137253629,58.29354089598823,1.0036085283099658,-0.9829735190270503,-0.6090448427997267,0.2887831307976715,0.8887930056067527,0.7605134174417729,0.5904384513831245,0.49389268854543095,0.8098822043728118
Run,0,1.0644951600765613,-3.1771428149181724,-62.07426676514623,0.3877881029310107,-0.2935734065718337,0.16261097423264542,0.29051873634056485,0.8542311249260746,0.8758472281705783,0.5061313336508902,0.7304794718594001,0.500127741899341
Run,0,1.0745464627386176,-3.2636327833387777,-61.96302459259383,0.3055666222023592,-0.21050575673502858,-0.029675388929959072,0.2771486609749268,0.9634733511563587,0.8447736667454072,0.4222336112928116,0.5101564437651681,1.036891824843348
Run,0,-0.7285467672735495,-1.236959493036986,1.8482075544363907,0.23389747337297284,-0.2695754347241627,-0.09788471386292716,0.22130295248589438,1.0404119909038663,0.9465941751117206,0.527106855086694,0.55158035125557,0.8276367002615367
Run,0,-0.7037704326452863,-1.2992001102235426,1.922323884829002,0.40844338702760596,-0.1693943600342985,0.1268524246254603,0.3067763197982373,1.0987631813649295,0.8695121760125486,0.27766633260514206,0.5590540163765417,0.8762398823212791
Run,0,-0.620022521936746,-1.3548783723637068,1.9947120385163721,0.45211139244247767,-0.3111783202661442,-0.099632158391455,0.2389640057082632,0.9030643630134743,0.9071816437296393,0.5438431594281322,0.7933904551534068,0.8366527448680956
Run,0,-8.643865221143312,-19.76307902613246,42.98813623976767,0.1862599974886131,0.5373954955757407,1.1661804639325337,0.26444084613723634,1.0615600553299642,0.7689874157252365,0.38080313340739513,0.5574392079329317,0.7277405784433173
Run,0,-8.750922092496221,-19.771593044288963,42.945905239380615,0.036458375968899434,0.3552556129593415,1.0622096711378906,0.25520084646922436,1.0234791584725869,0.8197643750039002,0.4097532399656153,0.7359732168937649,0.8980649012671383
Run,0,-2.3924224578161466,8.667355690488074,-63.036611563043586,0.15868014471886724,0.7642581020639572,0.9221227954310997,0.38526166384923577,0.9405484131553724,0.8993105915587543,0.4962941726081464,0.43848123167539943,0.7652231961813085
Run,0,-2.1698464801983492,8.584627382013853,-62.87653995692792,0.10567449611063937,0.8449998722467978,1.1646241807760773,0.0593534707086637,0.9519605565575259,0.8371902426632013,0.504881120696022,0.5027045531125794,0.8570407788537915
Run,0,-1.9753368789025458,8.592925438251221,-62.83518016513862,0.06970598825557509,0.6846188207717274,0.8884184454216463,0.5128284541090753,1.0101019256200776,1.0081930555300684,0.5839587771110404,0.5414567143810152,0.6691049506043873
Run,0,-15.148941386974982,-15.018383665308816,40.019817036367236,-0.13407847835721498,2.0982326164430956,2.180463735021168,0.19928613631522887,1.1352332181850522,0.991976710160766,0.45360103321347356,0.4246629914239711,0.684249409470626
Run,0,-15.038601489826501,-15.016527686469844,40.14054611792136,-0.13586676442960988,1.95504429262686,2.1446580438923863,0.273360336991247,1.031397446295817,1.0476589503340104,0.5554406593297027,0.5303050366936832,0.8714504584768684
Run,0,-6.445591676875549,30.432330931158052,-46.914737368590416,-0.13701905386235314,2.38898404272405,2.1958005701283994,0.2942240328229626,1.042158037441633,0.9800708173286898,0.4650333568054861,0.7124253313312818,0.667539167272533
Run,0,-6.484803442455343,30.187559871150924,-47.08527253011178,-0.12808585482515725,2.4420598601042802,2.2361021555141054,0.3364119123361884,0.9522592251399612,1.108835732945912,0.5375083735077879,0.6753557988259062,0.8121680634558283
Run,0,1.5519305480356895,-3.5114762263133215,-5.265849848135818,-0.10165405061606923,2.195382137592287,2.283485764914316,0.005919564606589656,1.0315390872656858,0.7612456338368796,0.5441478728148434,0.6779844180701154,0.8917545116470706
Run,0,1.6009045061687524,-3.3195152293655106,-5.1074416582384385,-0.16495119729429408,2.0134443758486436,2.1268832279712915,0.12187369931865277,0.981896029408236,0.8340721238335799,0.3447791336370179,0.6233562493079392,0.6150458203534119
Run,0,1.429610054240634,-3.548153332968335,-5.002934697072779,-0.10261767790044313,2.23679090634413,2.145607966688199,0.10456650421286076,0.9964876433939472,0.9993980663338085,0.4726931319920102,0.5381721413587599,0.8845248696385115
Run,0,-3.2807847724944605,24.046718148545285,50.57989201141998,0.18682845685000837,3.9031364942951976,2.7702892083492148,0.06536329825113066,0.9307475906018806,1.1110356308281948,0.2696389413772847,0.6458591774807505,0.8068353785746016
Run,0,-3.3893579514622774,24.06345501651377,50.50311187060621,0.0071434342672497125,3.9644245802993066,2.787391308375386,-0.0008430963183122253,0.9105138594204898,0.9730593826716882,0.31112357263743207,0.6187513563506937,0.7395411109545039
Run,0,19.078890529104207,-4.404947190157519,-38.35214746801491,-0.18657375175722007,2.800832802504902,1.4868747138811529,0.11682025452975109,0.9645747710727098,0.9472687781779725,0.4481489264614721,0.7057650088457599,0.8485722861948992
Run,0,19.10894074274797,-4.475062693453372,-38.42492558696985,-0.0603008609041378,2.369450536010711,1.3566560872924216,0.17832815481943382,0.9207856257407012,0.8735636639896376,0.24089887253237632,0.7594266044323293,0.9838326351070025
Run,0,18.850979029105794,-4.2517089615845505,-38.47550721640445,-0.24096994996246107,2.614446416646618,1.3807373580577873,-0.037881261579299996,0.7070017246053001,0.7970240666486051,0.21953019264647466,0.6064713328880138,0.7425942358205416
Run,0,4.462956572746468,5.1721289860357045,43.33042891724909,-0.29887391556156107,3.377897869643983,1.4814354593703896,0.01740144268081506,0.9303689735261718,0.959887905489027,0.22359267304161254,0.7509852117537242,0.6694001693537011
Run,0,4.366803072908339,5.369833517006153,43.42515893182818,-0.43098918957219695,3.2564270439964766,1.453520539872922,-0.04156295557662425,1.0524503989839098,1.0205914661667186,0.19096708253262235,0.4652978011156286,0.7645393095905697
Run,0,-7.31101636847955,-0.1856505932197094,-38.817081334187414,-0.3212413756852964,2.148372863223521,0.6834029324022335,0.2123047004542851,1.0477822919179232,0.722714321311424,0.01064888874013356,0.6780316805730622,0.8214397658969632
Run,0,-6.960017433423289,-0.023524705379349073,-38.912659856289466,-0.46946911419871484,1.9760784117160357,0.5938279768082281,-0.00018081103051687322,1.001009109419323,0.9240451289162671,0.22905376231396726,0.6551545406829206,0.7911406340304605
Run,0,-0.7753171679004494,-4.2141597942175615,2.637362667574652,-0.45217644654325584,1.950528045552855,0.7634063392740944,-0.03297864053003022,0.9826030946452935,0.9662739724941056,-0.02307325660768575,0.6392830938325718,0.854074972919871
Run,0,-0.6431827707280133,-4.260148461645837,2.6604066018479178,-0.6672240209941582,1.894445421466215,0.5502655025100782,0.11295566252607925,1.0844040787459317,0.9572827454540719,0.26845433918221584,0.4840825096625394,0.7786929309802572
Run,0,-0.6172085665417985,-3.977565251515805,2.524246006385119,-0.3813250421532771,2.0757752851405114,0.5884431461099753,0.025148113295149654,0.9885379414150602,0.9549934885451817,0.12100060909978765,0.5144989341428081,0.8578125117486342
Run,0,-11.312481251479298,11.898867913015582,63.28181671374739,-1.458867862755887,3.4091840789201253,0.44565179165374613,0.015620381293798117,0.9824362540204894,1.0790942175107288,-0.16733890864643,0.5337474153516693,0.899554625951407
Run,0,-11.4042535889879,12.033825469330592,63.18421494756261,-1.3069902690265105,3.349066481502931,0.17275544426700867,-0.027337870569860666,0.9148070976036806,0.9822434162310159,-0.1295615681450651,0.599681304437343,0.7867947277312859
Run,0,6.1096443639091635,-8.531231372989827,-41.364784774854996,-1.0738092778229358,2.4329208256802484,0.3221072032962289,-0.14642373527838498,0.8607878534590504,1.131008570293603,-0.2278187875981435,0.5860460022521726,0.7953279904094458
Run,0,6.007226104487094,-8.625568409188592,-41.35458698577061,-1.2261210640588731,2.622046782967316,0.5607135162026348,-0.019496560321477625,0.9130091278931073,0.8592476479924949,-0.08614841409001651,0.46547627572684125,0.692597099640676
Run,0,-0.7720444920119225,-0.9165270838791375,-5.89872167124693,-1.1242814124637583,2.604463015777246,0.38040000994565554,-0.016236786587934045,1.0023761008764882,1.1161678302481723,0.03918421021371875,0.5620895861028834,0.6669306255456818
Run,0,-0.7465820255179448,-0.799093592116506,-5.8196345717119735,-1.1639244121575059,2.6151423238994864,0.4089019853162415,-0.04373334443604862,1.3349069371563111,1.1108600453011506,-0.003832035023748081,0.3935580147266815,0.5374366837032691
Run,0,-0.7091532764615267,-0.8304184363842081,-5.890409040617238,-0.8245186436533638,2.546178532995367,0.28639435556687576,-0.10590820973411373,1.1861189349768582,1.1202641255365586,0.15114440748827512,0.6474044655744982,0.597282823625907
Run,0,-17.891356751964555,5.931685523577166,64.86507858986141,-1.2155583986374159,4.543747453573561,1.062611557036629,-0.15628449781840023,0.8128075800160633,1.0410874238499077,-0.08403978106761203,0.716485002612151,0.7825109456332776
Run,0,-17.91596053001053,6.099981709412324,64.8944097332625,-1.4810880260015202,4.39197059940882,1.0200125478445543,-0.21169101649584807,0.9446800800586428,0.9461527437204438,-0.01516413646612677,0.5046103632943705,1.0321242116268774
Run,0,11.848708203027622,-8.903360265782883,-52.058495993649224,-0.894371185614094,3.23571222074211,0.6061460204587414,0.04821774235300624,1.034502047184296,0.8279582443497451,-0.038854683470357976,0.5103524745846801,0.8087906874060725
Run,0,11.946640989829836,-8.953198782776436,-52.07843240914711,-0.9719880288226402,3.2199931603256906,0.6907768764286647,0.06876785119438177,0.8438216834364195,0.9382505723220277,-0.23325841371112602,0.4660294154782467,0.9027058939683242
Run,0,12.048206530005908,-8.90601616959714,-51.94579148165246,-0.6422319573360776,3.1582161265597133,0.7985440750798081,-0.038419238981877324,1.0275618365134482,1.1122483514646722,-0.1532185536445196,0.4215046840075303,0.8751444354704423
Run,0,-20.798483129099743,-0.6442776471229161,71.18707660435372,-0.7785421864465111,6.4354774745656345,1.3839485616786185,-0.17847233781159383,0.923123218058093,1.0379747576005798,-0.35436674380938127,0.8021056566429238,0.7419205323255001
Run,0,-20.56024798176834,-0.5914391869251707,71.26821481008479,-0.7345101903407217,6.364096133931632,1.3643465428973485,-0.03067263845540004,0.7858829065830505,0.9622474097809719,-0.39727480372721585,0.44079692727888364,0.9638186295588513
Run,0,20.27263936655691,-10.428131533826237,-60.98801246307792,-0.37584818584975116,4.403421088969617,1.0373125621097974,-0.08534193452884345,0.8941304898781796,0.9869437573641213,-0.40458652491224406,0.3774509897248931,0.8451123785099317
Run,0,20.4034601067613,-10.274690629087921,-61.05878164765471,-0.2849271709364175,4.061340181411361,0.9911498536461474,-0.15532916873770025,1.0737934027259086,0.943707399016937,-0.4318638684572746,0.6424930968933891,0.9574613695503158
Run,0,20.238462026091565,-10.157349469986649,-61.024194321204774,-0.5524159116042171,4.094818453438791,0.9724338319553856,0.08126731886694122,0.9486147571813093,0.9786295857448005,-0.21517881652098803,0.5777247559134053,1.1075247184136108
Run,0,-10.75382887603334,-9.673267914528273,80.21470527143815,-0.715669906587398,6.365307608069809,1.655988614191479,0.049837948171808824,0.8935070781988942,0.7984390379128729,-0.31756582679616346,0.3452606832656442,0.8413410288846904
Run,0,-10.759425092143239,-9.698910135691662,80.2144420938406,-0.44733048924481217,6.253768393197949,1.5917324916269058,-0.0729056231990396,1.0149012866366531,0.9313196957644053,-0.27998377963621435,0.47185953566101063,0.7912828147987864
Run,0,24.223317588105783,-5.369564108847712,-65.84653056313478,-0.4493948786042046,2.787121875910763,1.089708728806455,0.11881722130421149,1.1280038650570519,0.7718322354200572,-0.655485121102863,0.5228629764710758,0.8771475817209997
Run,0,24.351627377114944,-5.500300594095832,-65.77997813352931,-0.3567497199307412,2.8464833493942905,0.8536958830140157,-0.1631042852726953,1.0801913057385137,0.6128373427720389,-0.45461962334419703,0.4511196014105569,0.92720730561485
Run,0,4.53209674442443,1.2237240706477628,-28.937775314789146,-0.4032048834517972,2.1286453658715896,0.7133321129116936,-0.16356011538044304,0.9523640009592036,1.0075073764462439,-0.7048428264521726,0.3801374121683466,0.810463463220816
Run,0,4.584961781885106,1.232906898799928,-29.220295488110946,-0.38884288542331497,2.224371190560743,0.7937007523848476,-0.12943856797479006,1.0795775377275836,0.8034904032526524,-0.6086975709760138,0.513492501807377,0.9883534300334607
Run,0,4.832626832608225,1.2422340088528563,-29.068200750987323,-0.30254361375328204,2.3528700300460823,0.7698963618795617,-0.081848346254526,1.0951274259767803,0.9966123486377291,-0.5784246731858209,0.39068444471013997,0.9380117243547217
Run,0,9.124776059284004,-11.843691584893778,57.67095790761262,-0.392566500953115,1.0151908779772003,0.042223410481519355,-0.14796835491382845,0.9326988120150297,0.7434297636265679,-0.5382865615197131,0.5288919608689585,1.0271883005766338
Run,0,9.271228830328015,-11.893451381835991,57.89684526777956,-0.4371634564494696,0.9685211546012501,0.050961800139826575,-0.3218661275971758,1.054251845054308,0.7347990294122828,-0.6647535729079097,0.3591212179165453,0.8692505009651542
Run,0,4.291186679608465,4.5591239830897665,-60.883622228099355,-0.19571447877543316,0.6212871918376206,-0.21218746124852061,-0.12239705625128357,0.9976434585144236,0.7861457999699064,-0.7724846710789361,0.599418321130599,0.762171689941707
Run,0,4.30586494114677,4.625567081495209,-60.70519384079122,-0.015113871456010425,0.21570473061749132,-0.1022076367395809,0.07710921628927242,0.9249664607616117,0.831792878867835,-0.5813890641064365,0.488020805487024,0.9176882441696391
Run,0,4.611915286397503,4.516432085665592,-60.91887154708262,-0.20833930804873996,0.5133703737212201,0.03582803989967323,-0.18838931781673834,1.013068723112367,0.8873377023877163,-0.4798449857815503,0.39053042018814105,0.7711378221916501
Run,0,5.260066466993876,-14.736520879756569,56.8468716042164,-0.2344202297719591,0.11182867127225157,-0.5383808651737508,-0.08195074296079881,0.9903049712233808,0.7700035062919098,-0.5840293302322166,0.2896308599642873,0.8445075982899319
Run,0,5.416417742277974,-14.707109788111163,56.97391683536012,-0.1686493907504214,0.16417617530993786,-0.5805864315329755,-0.2133456310243791,0.8655699472799778,0.7767543624074692,-0.8872211316817837,0.6456511270246006,0.9538760885471246
Run,0,0.30702741532740707,-2.5176750975547866,-61.66110111215593,0.17024058922062396,-0.3387505628109462,-0.7171254098338108,-0.16974350238137964,1.1622317868397738,0.8410693753052809,-0.7368524564155822,0.4671682517306294,0.8915813176568511
Run,0,0.2549774864010367,-2.417156450264386,-61.90747613151001,0.24091888576992715,-0.3612816306511561,-0.4289571563159077,-0.17325013214053603,1.129610741016673,0.7287725546352193,-0.7050212155678555,0.6050273479931176,0.8186628356615555
Run,0,0.02651009932639874,0.43236884290133326,-3.9631847607374464,0.09626138314526475,-0.3004095948107769,-0.3880897414808597,-0.21377778729235247,0.9784344302218648,0.8053080478364665,-0.6486622236596423,0.35504616445375903,0.8214116543068787
Run,0,-0.03365669781642365,0.3477998099645995,-3.8829963503280815,-0.099104497082298,-0.3412430481512245,-0.38079274737570395,-0.16346481259530446,1.0116276030087623,0.7975898015124718,-0.7098507806892489,0.5317107682019732,0.8032946896170146
Run,0,0.09874591626549244,0.3682272429238267,-3.834379068795387,0.008076518067435687,-0.3724923807948079,-0.5587729973389732,-0.1323944097536133,1.032684709625763,0.8803562083275206,-0.6400297246810979,0.5658016852942567,0.916591446606825
Run,0,-7.6658467700635216,-16.815212786222002,54.75637362640339,0.8267224605454667,0.05919126163244287,-1.045986481213253,-0.014978025366857453,0.9180048531729803,0.7364618025365604,-0.552138017158003,0.4801956066164878,0.6748945651157439
Run,0,-7.442520524465239,-16.871041498434177,54.67937645018883,0.8210451248012278,0.07872217961229032,-1.065523369882521,-0.20048200241689462,0.9075800151124551,0.6801612686971243,-0.4944340022380902,0.47693486351681796,1.0983495750733825
Run,0,1.356902949536551,23.523447915293925,-56.117855091796734,0.6738989074843288,0.038400013647200915,-0.6309554030103991,0.038511432554797026,0.9018122995995388,0.6939621251801937,-0.5874256786003526,0.5197966875911276,0.9333585226685454
Run,0,1.3780047735419678,23.53932289698211,-56.361648271253884,0.7224849525292061,0.02146869449582367,-0.7763415163199353,-0.06866904955864642,1.0391504598099421,0.7761934105613669,-0.6587485282365438,0.441747424115262,0.8268636978708452
Run,0,1.444127338874571,23.7524837884016,-56.350151901681194,0.5495842037719914,-0.08035564663150739,-0.9380243289876686,-0.1193134394214431,0.9943120230257994,0.6916284207149958,-0.6984069677847344,0.5637298502663526,0.73298453659099
Run,0,1.6232759839404747,-6.761950709764938,52.40166852298896,1.387531045787076,-0.5219743887553594,-1.3671547098781924,0.09570846540117994,1.1089235573471583,0.9517693847887931,-0.5754223207053364,0.6226322158069271,0.7956129064303245
Run,0,1.460436878387788,-6.748419440815312,52.2789024511848,1.2694030427207161,-0.5538646846596489,-1.4696045596792047,0.03932113474221592,1.0722712341461806,0.6983281443531175,-0.5321413038605537,0.5212519900066427,0.9602111574513784
Run,0,18.541901899437608,28.1609731680263,-65.49037189917875,0.425658144291976,-2.765862295343109,-1.4615289312173398,-0.01984595650661125,1.2107107752417077,0.7734395746642553,-0.6908417857997639,0.6588508484191805,0.8593330295534216
Run,0,18.333479669060807,28.25057966645357,-65.69531703045256,0.40567466813892045,-2.690328839965039,-1.5130525598311968,0.08739537061828298,0.9964903772651383,0.755116739539566,-0.35937868704541487,0.3063780205003534,0.6578316761680848
Run,0,2.1222313881467705,-2.8083638784776235,5.26703008535035,0.33254470595255736,-2.9768959892526756,-1.271494287588286,-0.12381332740911674,1.0069782048693867,0.9067309696010741,-0.5084799889235003,0.5762881240420605,0.7972391983303134
Run,0,2.1918672675320834,-2.603572153356126,5.651777889838342,0.3849593359541792,-2.8237897687712064,-1.377274970685541,-0.11896543846705177,0.8541736094104,0.8076993639550554,-0.37550358185708665,0.6196031690263617,0.8870458310244457
Run,0,2.114595555006017,-2.7953722189252628,5.381018193624361,0.5657789363120616,-2.9449135021443458,-1.4352720966415737,-0.13866854736094303,0.8974668873920043,0.9650369222047388,-0.4423621003362291,0.5349136727292024,0.795699002636045
Run,0,10.399621109438185,24.78616095411895,42.45361222418249,-0.17654046309778265,-4.988782994063754,-2.023774868247626,0.06462159501090642,1.095639767117012,0.9671609683774706,-0.2618669718941493,0.5115700530198253,0.7330523153228753
Run,0,10.655593265636595,24.74381069061938,42.53505297826793,0.15448385205456028,-4.962330908283184,-2.1141359252600953,0.10552028733274532,0.8888790447164767,0.9168469772875106,-0.420241141823804,0.6948533304863309,0.9719627128755131
Run,0,-13.97789467950633,2.622546787015092,-48.81712214376799,0.04719597692624429,-2.669566097291952,-1.005195716679761,0.11651285840725562,1.1212227880867283,0.9001531711150934,-0.38211125708772453,0.46378764833266206,0.994215689068482
Run,0,-13.907451537168416,2.6111127631628577,-48.923440749174794,0.032008562221771966,-2.721783636512278,-1.2842640215161654,0.24928757236852372,1.0137231253877987,0.8389092204292944,-0.3411627027472233,0.8528510050224186,0.8019120331299622
Run,0,-14.002708422521987,2.615507694847094,-49.00460588824315,-0.08300643331829496,-2.985783145950937,-1.1005475988564626,-0.06765670314502364,0.9345266008358848,0.7345421744743282,-0.3038516854190486,0.6368421106673507,0.6609517842275686
Run,0,2.4954753225926347,16.6140167514546,59.44728243246157,0.04426934730198067,-3.480057304923303,-1.0581796082226462,0.026025694091334053,1.2148109184974043,0.9118537198583829,-0.32795909661906675,0.6175121849730565,0.720790478525551
Run,0,2.493892255925494,16.62302645002119,59.2019918487855,0.13484016100784826,-3.427070844872536,-1.3701852483676578,0.048913059544611635,0.783848423374692,1.0564664166647952,-0.26755972079518175,0.6365900778947209,0.9459412523117525
Run,0,-11.038682615015789,-2.9836227040703345,-44.83079341215066,0.015737632285402786,-1.6369198200577235,-0.3332791716260808,0.1678213181673167,0.9028436921461044,0.8983434746779373,-0.20032585734587863,0.6376917775429206,0.7488943265114583
Run,0,-11.123241941188278,-2.9849760752550605,-44.77975450095044,-0.08093995871491266,-1.5870202237767514,-0.46294207906470825,0.08923547936990196,0.9081202467512762,0.9863384768119997,-0.18262593440715497,0.7244300868269101,0.7585694659589287
Run,0,0.14449661199068825,-3.7821070732211317,0.5417852875404844,-0.04123580516330211,-1.4874495340900664,-0.47834276995663266,-0.012848164250495196,0.9315797207638753,0.8808216279921759,-0.25711558004655943,0.6017931048555747,0.8824319718482638
Run,0,0.21351714645043607,-3.482643320455074,0.5938591217723266,-0.007738504309260336,-1.684580554385417,-0.4372870008538705,0.008431707826106173,0.9032946467339951,0.9263605876621619,-0.237455723655357,0.7320782951495153,0.728247707307598
Run,0,0.26862081937734467,-3.5018487522013064,0.56790045869424,-0.03844197172105551,-1.595668109512957,-0.31307954897680973,0.08325181149050387,0.8975564580803773,0.9477893331065209,-0.331897278168967,0.6337216754352519,0.6961524875920247
Run,0,2.6565964642483695,19.575343437226998,70.52568676145987,-0.21828023634973934,-2.1084409989137094,-0.18910195835918342,0.07330594514644373,1.0635369816167175,1.0393011396958647,-0.012452999125798364,0.5770617845539961,0.7000772474993237
Run,0,2.6817769637875535,19.411622808223385,70.67349234339972,-0.24341764904891738,-1.8301761073976652,-0.15868078349547343,0.16959757704100142,0.8602367695448251,1.0273771112369614,-0.23035239116510411,0.7776394335881617,0.7855872894180896
Run,0,-1.9701787861230948,-21.108493488938333,-69.02289408089973,-0.5380047717900802,-1.9835230121928675,-0.4624208072164899,0.07100523348799873,0.9564530498509322,0.9499920747901552,-0.26008639658624944,0.6023712175139173,0.7630164858788194
Run,0,-1.7815280775190836,-21.157828716565803,-69.18090863012235,-0.3096135000648891,-1.7868177099283384,-0.2426116641956086,-0.05952624597498239,0.8892656645803165,0.9153482848675566,-0.3304052671692998,0.6786886741186913,0.8705338691360107
Run,0,-1.8938827290490787,-20.895260342042604,-69.37344267067004,-0.4722801953582429,-1.9192608335980554,-0.5517436045461066,0.06453910700466899,1.006458607331474,1.0137530367723653,0.02391403265547115,0.5899374591925326,0.6670978328383217
Run,0,11.29523875652986,9.254602092464891,70.44848409758575,-0.9525229704274369,-3.781533491735819,-0.7907556993617448,0.06889151295059123,1.1593990832199583,1.3038064597162036,0.0024523169705043257,0.6806682628575828,0.849679101490867
Run,0,11.154954906017439,9.663436778470572,70.43621760310681,-0.706440072101174,-3.9194980950099056,-0.8387491276296677,0.09969832927502432,1.0564613776969687,0.9379484956223758,-0.26410424318450576,0.645353986192853,0.9202938306272639
Run,0,-6.960463253486714,-18.44411238013196,-54.796948093182976,-0.6294937427890113,-3.3605790808580664,-0.7237982268537018,0.19529393120806857,1.0513731920564715,1.0465584505282026,0.08607930550419068,0.7706583762301912,0.720976837151971
Run,0,-6.883676006952802,-18.65586117733296,-55.13989245906113,-0.6823719982726874,-3.400283560149353,-0.5845921178213412,0.1570096723139075,1.0651297383541691,0.9736146210054568,-0.09215974992853364,0.5642031460609475,0.6416285975458152
Run,0,-0.24360225481351253,-3.609713554078947,2.2981175360267683,-0.8653921596093729,-3.3983215607247286,-0.7391041491090584,0.20997990331415553,1.0942053116135715,0.9171027106091425,0.13563677780771324,0.6104257091448475,0.7973698572170882
Run,0,-0.42604858148453206,-3.7369012136031023,2.196613234833358,-0.8526036577558718,-3.5833583597622645,-0.7532297702020582,0.2590730367161708,0.9336149035960977,0.9897544125516189,-0.1071287928319818,0.3447929173406471,0.8859325294697616
Run,0,-0.2576814096211328,-12.700006322576527,5.202482896135794,-0.7715948786459522,-3.2227395798573673,-0.8720597438708106,0.12990993825305905,1.0679806249733534,0.8862913765237534,0.17900155246183122,0.6097421078086159,0.9998893972751288
Run,0,-0.4979830797817159,-12.60323590263772,5.111823554740979,-0.7776664353298278,-3.3727506232210427,-0.6172890925609182,0.2737948738335988,0.97396917750618,0.8912039508917311,0.1525655097468103,0.6693309224110969,0.8247904527256449
Run,0,-0.5869447614346578,-12.603323533175697,5.091510628158133,-0.5840556446347116,-3.393106072729201,-0.6086008853424744,0.07940484338899198,0.9412461722965846,1.0808591177290836,0.11530978598464078,0.6111027768782831,0.7416949330892413
Run,0,1.9715677669821734,-12.337205111111144,63.71013512238099,-1.1935989528960251,-4.7380524403205895,-0.8587404743353525,0.15862007381355475,0.8807696382389664,1.0389355116987562,0.23629666547389547,0.47290442899931956,0.7913850874772845
Run,0,2.1301247816983295,-12.325712567089765,63.745129762477205,-1.1918078712140805,-4.574210152830659,-1.0658332425502968,0.16322560287865878,0.9656147873453136,1.0413658317211856,0.14203024164001957,0.5942810154009694,0.9118285588309751
Run,0,2.2107047476177137,-12.120269815435572,63.78095203443575,-1.1890397954936276,-4.579712680512706,-1.0145357808919662,0.22975869157801554,1.065376486369778,1.0137272313129675,-0.023855772636504263,0.4279442811986971,0.8699460094085044
Run,0,-6.1715885194174795,-14.331890723802932,3.9261300248070623,-1.1072866556814216,-3.9331449420466087,-1.0769160904867774,0.10525837265634208,0.9097187296080742,0.9384696257992253,0.33269769555661716,0.44431825390574964,0.8196483350262939
Run,0,-6.402229803088413,-14.592374271070593,3.9544768489648874,-1.1118910577487549,-3.923100293407877,-0.9049979070356209,0.06373094621870203,0.9415286099019163,0.9289777360225727,0.15537713826341196,0.6457495837638698,0.8821805775617741
Run,0,-14.746345371468697,4.668222545613304,-71.32550077627559,-0.44454412440142343,-1.3143780261659228,-0.381782439266112,0.05303500422359271,1.2728153347188416,0.8209783215656073,0.43074904191307817,0.5929512442996286,0.8629446174386476
Run,0,-14.726151210109155,4.570899469967483,-71.24972600975421,-0.4448935463294543,-1.0653104438961756,-0.43200225798210107,0.12898678336909344,1.0888264186314907,1.1298750088924632,0.2732790674834229,0.5416179238540487,0.945333679473027
Run,0,-0.43944993703984997,-0.496514255954451,-2.1588407381481938,-0.28814220269879315,-1.2403283058076062,-0.4014748162237041,0.3162011230890557,0.9762723806994112,0.828392641592043,0.14446538938198586,0.49778900090015676,1.000560249706477
Run,0,-0.40446050327596145,-0.4700003890876159,-1.8287523762471256,-0.30186146651356704,-1.3970713117581712,-0.24269712010640854,0.09584376206981239,1.0287718912163535,0.8419595738774506,0.3545081366895382,0.41013834351915734,0.8313964705791613
Run,0,-0.43581289974400556,-0.371741955109789,-1.997249504235096,-0.47537207161640416,-1.2778300417788464,-0.26247870926053246,0.11036134755583563,0.9618870918231147,0.8312948353534149,0.23153663581933623,0.6424227850025108,1.0809165600095418
Run,0,-18.555608481003382,-17.870682815485583,52.22636391653284,0.17444572645589854,0.6100889411603255,-0.48159452611987397,0.11645347901119596,0.8473985411659792,1.0037513470283055,0.34451111284292096,0.44350352364300927,0.6377035417136315
Run,0,-18.573030784970506,-17.665203527561122,52.26945896510263,0.2027674395617799,0.5302041415590228,-0.3949894236375026,-0.08959906101812462,1.0324327074193338,0.9563733169360535,0.30382044751944925,0.5207937557692837,0.7612656297875157
Run,0,10.332880726756988,16.189884631860288,-68.11019740002125,0.07223748353496456,0.43092444313543254,-0.28752024031792073,0.06397268868525238,1.0287400689079165,1.0422675889138986,0.3603244853131559,0.4723045277284017,0.7347468259465899
Run,0,10.214945682286832,16.16420102389189,-68.24111468518426,0.24583319260237074,0.4296900919081085,-0.31574983537766743,0.16279505248608828,1.0206062166877492,0.8928116946279948,0.36007944401048336,0.7420823020028048,0.8546964280975268
Run,0,10.137135935247453,16.112432359656964,-68.18072768559588,0.110916182762472,0.24155423127319386,-0.2336308167741909,0.16525809763744637,1.0258173960809978,0.9464966831149253,0.30497760948648256,0.5509213124570752,0.6671217296615853
Run,0,-5.023479125602279,-12.516923951551735,54.48874455530563,0.2148576932891311,0.6203018589418404,-0.38094322308656536,0.17841553829031148,1.0458357448395192,0.7447250102441629,0.24869633410391492,0.5821607701115241,0.9414249574442705
Run,0,-5.205013980786186,-12.624013035718395,54.48392048870924,0.2104683259951525,0.4519539904671315,-0.3502184529749872,0.20113837614929217,1.0863893167591827,1.0647920522531513,0.3441829865663641,0.8240484171309195,0.9356104369946149
Run,0,10.122509919083907,31.09996999317033,-59.33448781108113,0.4780239519477707,-0.22590054929481368,-0.2680502121733569,0.18306207647301198,1.1056411271660471,1.0608005868729964,0.3342502216003304,0.604090299967385,0.7959942167453229
Run,0,10.2006260441668,31.17011067113676,-59.18877977490814,0.5649694454629001,-0.018557721412825384,-0.07090968536852883,0.21822321328569239,1.0586549034507566,1.0453687932424227,0.33424219259174087,0.45311411742363256,0.9817183884080357
Run,0,-0.23144832936467974,-1.5134962971402717,-1.8551545043320092,0.5483482431701423,-0.10402567548753877,-0.146442767675686,0.152657995238855,1.1067227505877248,0.9349779739779727,0.39937930166133384,0.5750341788838149,0.8453103893516998
Run,0,-0.30414724545918526,-1.5548061111560236,-2.0798850876388024,0.520775092945453,0.16595891909941027,-0.05697843065000825,0.05516749744047039,1.0312254272900852,0.9814119844394744,0.3022112265357651,0.5433723080936074,0.6880270259567783
Run,0,-0.2482028537470792,-1.7268347263088253,-2.0552244037572907,0.6052401913178045,-0.06189079584223729,-0.10391196518811745,0.2118542475638159,0.9520360702005742,0.8929258470668832,0.2814888404888317,0.571316273955477,0.643060544473518
Run,0,-22.06743846807938,29.07320416395648,40.21328991622034,0.8222171503078115,1.9009366883590368,0.1670154884326783,0.1763677857649331,0.9032474691878287,1.113810856063211,0.28166738299806043,0.5189496903699191,0.9032208162406609
Run,0,-22.122610716260525,29.21784437667913,40.34855688324106,1.0086885508210157,1.9622321464047323,0.3233801214729728,0.4271468534351787,0.898268643947469,0.9618659675232561,0.2577350967620346,0.43280394969988767,0.8396241982025091
Run,0,3.242268400306864,-1.6354157469336448,-45.34751092941991,0.4389294523375078,1.9317220750489326,0.41000980770625095,0.2515721835053835,0.8840708543131044,0.9703101216061194,0.24348781452885424,0.6093585527626642,0.8606962492336188
Run,0,3.442171731487443,-1.5077617789058824,-45.1899535596006,0.3965651998389413,1.9483789700100782,0.32451648008576156,0.110411475016928,1.0367225573334307,0.8676537364664779,0.1909502694867477,0.4321909868292081,0.8974375521303034
Run,0,3.3928865268196113,-1.5811482788275228,-45.30598124577682,0.5524416466167351,1.7560046851264275,0.5886240173451947,0.33541318943041576,1.0079797278930447,0.9489024959570777,0.36157469738590386,0.5446791342666426,0.8471418016294285
Run,0,-20.01195122360237,16.983941618921254,33.46531852369748,0.2791778777816224,3.8132409405138796,1.187697132191409,0.11334981467798165,1.195006991704993,1.1480709656027215,0.0740109052168756,0.7233204022070739,0.7648208739265773
Run,0,-19.82949065209317,16.77711525777958,33.51170168218612,0.5951126905408806,3.538412601453983,1.2526011818261322,0.17038150525108495,1.1133591532360774,0.867215074398961,0.033405346371176564,0.6426376006973913,0.5960566771404059
Run,0,8.723941173978611,-1.5745792225671518,-44.305077782632985,0.3650886176042347,2.8242067107641873,0.7349938617585455,0.2242516284341759,0.876330116073021,0.894671763047125,-0.08822156053112008,0.6790388870079551,0.7390649064958783
Run,0,8.943867025663408,-1.6162515163242173,-44.276537180288514,0.5104898588666902,2.912824498020549,0.9940496994678556,0.13914819219393165,1.14589437743862,0.8408783699533888,0.02383142808164329,0.5440365744776828,0.7515129489095012
Run,0,-1.2827450941189928,-2.1030273035166505,3.0570170214797936,0.3582757754977587,2.754904933598752,1.0450543746099938,0.07157986053181091,0.8610596163647135,1.0055529913351235,0.06971951663486567,0.5507741220395903,0.6602317265180008
Run,0,-1.312225379292037,-2.209603147005849,3.187951187819299,0.21687094796214126,2.932288464776952,0.9669264873463441,0.1371846855957623,1.0921611870891503,0.780419340051075,0.037363129283990396,0.5139624262841204,0.7090703307146417
Run,0,-1.1297251157061559,-2.1232400730182284,3.049609890560955,0.48929387928469775,3.153617813998682,0.9066650660165805,0.25858396023091124,0.8839996424182215,0.8723465651035418,0.05761456859419119,0.6058613913581232,0.7652270590317989
Run,0,-26.578730735841035,20.38976659852166,48.26753894244163,0.3252190640226717,4.800511806313768,1.4584259659984278,0.010214824817724205,1.02833872266964,0.9835780795670607,-0.011092318766552783,0.6305136438798881,0.7238401941672145
Run,0,-26.31691925647185,20.410686940923686,48.17548519985158,0.07765235348045584,4.929287387037065,1.4044298064629408,0.05777453381828964,1.0741969401816498,0.8885649037327494,-0.019366522815306972,0.6787543801451212,0.6814893778244624
Run,0,21.70964325116189,-21.819019151470282,-43.34021969147062,0.22964626740240837,3.0850477293009115,0.9233838917233304,0.0888886233971244,1.0142709140304609,0.9346914700371042,-0.04271355362542255,0.7185882191921333,0.8087654785812313
Run,0,21.71058523250382,-21.740502312767727,-43.19242582283728,0.18547535218214,3.358475879906714,0.9160428088189387,0.18430426576262138,0.948376716782433,0.8681590905224049,0.019714203233605232,0.5626037977809873,0.6823580478118225
Run,0,-0.9831524468700477,-2.3184022715750343,6.733743631416306,0.07304447994738533,3.333992417847317,1.1579706935709841,-0.14364114167896896,1.016414155369305,1.0926949288708143,-0.16416275776450823,0.3454127378211439,0.8370826719095237
Run,0,-1.0173508526715644,-2.366460947715018,6.560501993644626,0.09074364892604302,3.3027042771009008,1.0378583871439144,0.10914633039122887,0.938312388150195,0.8581162932243626,-0.06981513135479624,0.652412294333767,0.7558551726174626
Run,0,-1.0379358311016444,-2.463354086932924,6.640708711746302,0.20585108983965078,3.2169590458597903,1.129619988986823,-0.01621590598166263,1.0156468291087237,0.9899368863240383,-0.15955483775594642,0.644478411284352,0.9490852526953562
Run,0,-16.840646658824078,6.984678872948612,52.67338826906233,0.15071669460057116,4.740340978084961,1.5202338099079211,-0.09712225281147883,0.9472368106994592,0.9205183237695761,-0.23370953744323117,0.5185141920372628,0.8652032646995427
Run,0,-16.653980139450795,6.919496492921824,52.66003445057036,0.04557800294889756,4.807611756948745,1.5504512256401746,-0.050946367753240976,1.0416624926647933,1.0174714006462813,-0.3574559647925217,0.5129170412162023,0.9771235905999353
Run,0,23.225280472619158,-15.647615623716552,-52.931870028318386,0.1425868665251041,3.157339724490523,1.068700772914813,0.0026856918723183066,0.840491761276233,0.8119717663698538,-0.11195120659158975,0.5276389418122124,0.8113484038861687
Run,0,23.15635237093582,-15.577380679740562,-52.92574205828321,0.009873566557886349,3.0408087088265052,0.7867279898004983,-0.018461323849554234,0.8880687142984338,1.1475143659105682,-0.33801026314269333,0.6361535274497225,0.7354406708978888
Run,0,23.216812475021474,-15.624201205111186,-52.87327477362034,0.14807591865441677,3.107449853237056,0.9950975467801438,-0.13067478050596512,1.1052954674628936,0.9444215679465764,-0.4627080908686021,0.5678644179831437,0.7712676467017607
Run,0,-11.187265847624332,-4.099689239699939,58.89990848408716,-0.12198881916253264,4.669436584335237,1.658180299604281,0.15656434437013006,1.012082655129643,0.7835142185246349,-0.35908487521536475,0.5240093197618073,0.8115508248996366
Run,0,-11.054193137776634,-4.202672062960054,58.802276387510084,-0.29508436997551085,4.51684778717138,1.53307148290626,-0.04010617071361165,0.9136934533295467,0.9852578308765344,-0.46563466010461063,0.7168216757936176,0.9965369394582955
Run,0,19.81026957580187,-13.360810023666826,-55.48772069358081,0.0587315246461301,2.7577403893716554,0.8951606140785056,-0.12101192129606192,0.7567064095734402,0.9000799100922396,-0.4239820606559358,0.4662407149324219,0.6842502004290032
Run,0,19.707518661784558,-13.501257596514916,-55.475354286335424,-0.15990460467016906,2.8657743905898974,1.0863483278074584,0.00869117216501436,0.9376485776969431,0.8599192618830886,-0.535119791505217,0.6893873890997644,0.7778946904592358
Run,0,19.77354463711366,-13.554421277546943,-55.4295995480005,-0.11125680043025604,2.7617855698616154,0.9816573181999111,-0.06806804206912212,1.0205626718290561,0.8348861471568976,-0.42921836756649084,0.5220796196495271,0.899439656137007
Run,0,-11.637558695757653,-10.555139889007416,55.42098463402114,-0.4514425757387098,3.8864138401380064,1.7327556768359051,0.03263719181001498,1.0298985634343867,0.8554544971256763,-0.5768740521273371,0.6828970981687493,0.8802830005230948
Run,0,27.907417268569528,-0.7742272667479086,-107.91714536757605,-0.2745608824376374,0.8915209084415819,0.6084758987312712,-0.21158344045220498,1.087394091933641,0.9050462945139408,-0.594911871228135,0.4144064406627622,0.7345682787269274
Run,0,28.155504533009342,-0.7161162915103784,-107.87090628876378,-0.15479160160467076,1.1856591030874521,0.322931469942605,-0.11743425123967166,0.9700536828865266,0.8263313288570223,-0.6899356887640876,0.6468980962983408,0.8762475921737282
Run,0,-25.11499627506346,-19.264064005566297,105.30511812828047,-0.6923029445731999,2.9357407125048547,1.292759865410523,-0.09788324653268793,0.8499711433014419,0.7490328116027597,-0.6299844210256702,0.42842002558429026,1.0162463664753458
Run,0,-25.216687107837444,-19.1506767346594,105.2569219944936,-0.7654277222004625,2.9128535658707206,1.285391312431202,0.10607582423392928,0.974299975248989,0.8441461219110387,-0.6422260671936788,0.28766814593940526,0.9291121260233516
Run,0,-25.101710216386984,-19.19633193061427,105.0891824292609,-0.6671955993087091,2.790141697865266,1.5773043165630933,-0.02805656804556185,1.0749491212794127,0.7417936663429504,-0.6159843529199619,0.3818426522028274,0.7545614748856933
Run,0,7.746703279990204,-6.070454504659406,-4.691829301332664,-0.96353358165782,1.8249203745268705,0.8060958526132356,0.10307671538943729,1.170557746582516,0.6506965069148531,-0.6540322443557268,0.5662792109976857,0.8776361797027369
Run,0,7.777974519463283,-5.898527485622287,-4.629353157497334,-1.153795307704606,1.7666335119322578,0.9538893248129591,-0.14432828810900847,1.0138417931138395,0.6747724076680168,-0.5903085715577528,0.34510976584332753,0.8440995778344528
Run,0,15.549994631371092,10.771298596969574,-54.17309945205409,-0.6241204723634529,0.5870068635006925,0.1681549426760446,-0.15361790483481774,0.7623809921205635,0.6274340058224077,-0.6422520713900332,0.5550179994364355,0.7872439426605848
Run,0,15.480711902763604,10.863119878366764,-54.115485317983534,-0.8259754244741018,0.7428127737611726,0.4137833400443765,-0.15065499810617478,1.010280821704999,0.8058581466982072,-0.7105077418528859,0.31994698066688454,0.6485400512028625
Run,0,15.389548178809912,10.808959908980679,-54.083122823189285,-0.9311082581252885,0.6681106452346078,0.1686958274921337,-0.05889548608999026,0.7895804850560318,0.6544980124722669,-0.5967105048120316,0.6295806345811598,0.8911299949221481
Run,0,0.2498208411261707,-12.119075202339943,43.760457832569735,-1.173567036045903,0.2963305130891513,0.1332353230948693,-0.08995424578435687,1.1297590143671106,0.6054804923742453,-0.6385898535584675,0.36680241086016946,0.8530231977494444
Run,0,0.3281392485626421,-12.250608730975056,43.76779243006716,-1.3715496980854323,0.1879604904669366,0.08343172676323658,-0.004831798417655367,0.9047713518843008,0.6734197162829045,-0.7179042296271037,0.5613414680984745,0.7273203369472658
Run,0,13.01834068465799,7.489092682335457,-51.216380852836316,-0.8846064314363667,-0.685926225986401,0.13464053291350897,0.2474210219693691,1.0540910298192347,0.7619330922260567,-0.6886012595564169,0.5099655865554175,0.8282513122475196
Run,0,13.080731438638917,7.331200224983182,-51.175131744006805,-0.7873271064732522,-0.7561213200551284,0.06771477891306202,-0.19727515187778993,0.9738901296532615,0.6718691583574229,-0.7165852647304111,0.5075776938082988,0.9737446696524852
Run,0,0.7894671654510761,-0.33294309113242365,-1.9623132818409723,-0.606977375419538,-0.6014285174679732,-0.02058634437224413,-0.04060732406886893,1.124848697813718,0.7510955806067428,-0.6509908501107613,0.27978225246065863,0.7568320997443774
Run,0,0.7205015294474505,-0.3605018458892942,-2.142503919147472,-0.6330065827561493,-0.5568609244808223,0.014141213586199478,0.008702189545385673,0.919893556520397,0.8231656195714415,-0.5266520092920403,0.45066063760787456,0.8589764543285555
Run,0,0.7637791963872286,-0.316493607492889,-2.111643206499262,-0.6978470288408404,-0.6212332545856264,0.1331147880708624,0.03990141631196089,1.1353940764762622,0.885907950534171,-0.5900027493862043,0.37172405466999425,0.7816318723661997
Run,0,3.1617256069073507,-14.728880848042264,50.444826585612354,-0.48483853701746255,-1.7374891318129364,-0.5604718961005959,0.03274085777601499,0.8920744689913941,0.7309904224346819,-0.6962662611344388,0.5431561546364408,0.9882970250770342
Run,0,3.1273928681024694,-14.708868659216154,50.401610090242954,-0.5414160107181458,-1.7381592566331892,-0.531205482148414,0.19052458495844493,0.9802720359944515,0.8770272494518778,-0.7310079759142171,0.22509284115447192,0.9371775358589528
Run,0,1.8507147313390158,17.928866241909784,-49.69725388310609,-0.1709093611327534,-1.7772114243656092,-0.7063966392957226,-0.06059113681639497,0.9468606262186815,0.9440728134676719,-0.5050646139816529,0.4635548849252349,1.0084148293172654
Run,0,1.6584806862324633,17.74550255275259,-49.571707662328436,-0.47297917855384447,-1.8994293486915579,-0.6370226546263759,-0.07884916560888675,1.0158096300532022,0.6572348097479255,-0.7013896114126466,0.45677361577994513,0.9555998202025199
Run,0,1.9041059163479093,18.00614000280695,-49.39920603265456,-0.22440378730624067,-1.656556935170774,-0.5717813476756287,-0.10679642913656368,0.9037569055867735,0.9410200161648127,-0.47605849871641603,0.4757342297803862,0.8136889671378753
Run,0,5.768503606933117,-7.814768306277876,40.18232905541793,-0.23001884057529873,-3.397134553133156,-1.7436363838840792,-0.05006203935137675,0.9696321333587846,0.9236382312993388,-0.3879396889759852,0.5830237659741888,0.9773248209851757
Run,0,5.729483308461226,-7.847223130701004,39.932867809751144,-0.49396834769579706,-3.2450675656356083,-1.788089210483199,-0.11907619834262292,0.9364726139491418,0.8094340743330773,-0.4927670889157907,0.3215665007533971,1.0058502376189553
Run,0,1.7117725977468476,21.142068682359927,-41.61080740891289,0.4333018955586412,-3.1746559819848064,-0.6878778460160656,0.009098826783230152,1.0160058335227622,1.0708050681973134,-0.4873645082537196,0.3914885582594905,0.7715659141313234
Run,0,1.7400825147242993,21.065762639836414,-41.49730534507966,0.14451813458421664,-3.2822462357770457,-0.7825250675920945,-0.045342137242567804,0.8883964716429615,0.9270491687338637,-0.30635601887526576,0.42863506276954555,0.865047080682273
Run,0,0.3904660369725232,-1.0596654720321548,-5.989475518376483,0.3436232701250733,-3.087519645291364,-0.4961137630324145,-0.06971309533889283,1.0693084284056205,0.6965606107477733,-0.27402033322302966,0.1423940419257001,0.9119341130229446
Run,0,0.26516980486062514,-1.2500228116118586,-5.993806647534288,0.41431524547015436,-3.143713907910643,-0.6581918003184049,0.08647206108566771,0.9050110130023762,0.8083845794704606,-0.41272566779834624,0.5150054203464646,0.8893463555601214
Run,0,0.3811612378150474,-1.026592655464246,-6.0207691126749046,0.4490637359636137,-3.062751562362072,-0.522267060098003,0.1602805863781877,0.9532993298058511,0.8983204780546153,-0.5496088422583836,0.4902784635857962,0.7742019646814053
Run,0,6.634757889301106,11.964707190335014,52.11695550329668,0.6010897785639776,-5.3710148133827715,-1.0059323815572436,0.044374931312744025,0.9943908781540887,0.9740589867910596,-0.1889369264178197,0.5417356175738322,0.8104244610801261
Run,0,6.334018433466951,11.904291142694175,52.21736573152278,0.5089100860482969,-5.442828176981216,-1.1380084787979408,0.17241651139037933,1.1935607109305924,0.8812623215627883,-0.35267861653846544,0.5241899104486827,0.7578473465177068
Run,0,1.1129722147033005,4.775721953247061,-37.74366950166143,0.47298766680144133,-3.727995607333398,-0.9629620975273722,0.08990891697283229,1.0245363727919827,1.0651066732812493,-0.17269061378741718,0.41536969437222243,0.794126329120296
Run,0,1.2725226441810042,4.786359116893895,-37.751172785193766,0.37288823953120354,-3.6905467287523344,-1.2030417863583729,0.07041539540056496,1.1567543558985576,0.8659613334143867,-0.3419376131788665,0.5602309710367438,0.918496118704455
Run,0,0.9692183241185413,4.831262987549563,-38.05026658659199,0.3297994467801928,-3.683568934517569,-1.0197932338135969,0.08168448948632075,0.8123772008473222,1.0702513787270895,-0.21311926868334952,0.5144719474537216,0.8749514420612378
Run,0,17.483452588922884,8.477505228551378,47.063519546857215,0.4121613752190881,-5.703447122975581,-2.2314390534996873,0.13755457312364125,0.9916610719175923,1.0058136238025985,-0.04443632711907275,0.4440710212422505,0.7840342223011317
Run,0,17.4326455193595,8.261082544128632,47.401860629707954,0.5678833356537448,-5.625785355850906,-2.194073731741293,0.11202922818204206,0.9943869430896162,0.7952553252408343,-0.007312535384819491,0.5027444886866761,0.7507661375359996
Run,0,-19.271564912280052,0.3489977943257312,-38.628463941177856,0.5818783310496233,-3.2276983810716002,-1.042130161694429,0.1743256048522682,0.8033164680841283,0.9768544696227315,-0.006069114200190719,0.5859746411356399,0.7882461926841042
Run,0,-19.27702669909029,0.21971060033330336,-38.854212226403455,0.8905302321353868,-3.424284121544751,-0.9884198518445946,0.22968507565785662,0.8941419389115355,0.8509655183980875,-0.20943619687501874,0.44833373558605794,0.953264857149123
Run,0,0.25736517395546055,-4.052623050092159,4.599663412398509,0.747057619556217,-3.4487090462152703,-1.2587437133610746,0.2747021885513523,0.8651507537269587,1.056047494500308,0.04067159314765485,0.4879174128494499,0.7418314827150422
Run,0,64.66835298358731,408.865176308255,357.32755937166866,-10.342672101713001,-0.9239299797127097,-6.906522472669105,0.090243557874203,0.9420014272460833,0.9274014184967206,0.004746901310503858,0.4926040406421994,0.6017110358953421
Run,0,-38.91766036497195,-372.9661449205873,-270.02646128529386,-0.35624165631641386,-3.99039715582941,-0.5008751799320738,0.2246411450466233,0.8779988212577421,0.8568762915862589,0.15826981611594337,0.5310004198615536,1.0069858159864824
Run,0,-38.878826975019074,-372.9101553408825,-269.93675410249017,-0.22201235704085096,-3.872920977544018,-0.28019661346314023,0.10052044063280303,1.0970128831063761,1.0852361149090368,0.15368335038584946,0.37581331837814613,0.8185106635699122
Run,0,-0.9055502027784605,-3.481132976861233,2.9667564306816083,-0.3622864219896829,-3.8654455243859136,-0.23604662948808636,0.00691529483150935,0.9311857541667795,0.9918131536902671,0.20835244058107733,0.5895270177251357,0.7421322082749655
Run,0,-0.8435611686249755,-3.5922548760185142,3.035322537030772,-0.18028938533318623,-3.6826793736851293,-0.2663868353702781,0.08288584912067974,1.0131543404206358,0.9907440994044862,0.20729943872321635,0.3975028608971686,0.8793424962617661
Run,0,-0.8645688154488901,-3.640660199979645,3.140394290556782,-0.337005213734134,-3.587978939578578,-0.35999547543833293,0.1578091239282249,1.1542088796780818,0.9243843003330668,0.20446805982481658,0.5497502253381338,0.863385796841316
Run,0,5.7257139588795845,6.6514464499551496,65.2227795336844,-0.10379307817914162,-4.305799077713579,-0.5523117280553645,0.2212473267244019,0.9894779518600644,0.7560393537309634,0.2839221361644145,0.6306596949362556,0.8241930524841813
Run,0,5.526192477263782,6.702768309055371,65.03857426949456,-0.24375496995668688,-4.230814594679515,-0.6493329431971966,0.3126523235406791,1.0554087502439056,1.100634910635033,0.18053793110316607,0.5350992762618063,0.8468154454922313
Run,0,-7.0453194477244585,-15.962410998642273,-33.58170589663977,-0.02537366143808083,-3.1223362874833254,-0.6263854641829362,0.12038298853467903,0.8676116205253317,0.9177912132704399,0.16318071591931485,0.29802318528058025,0.8559752729190881
Run,0,-7.068225625955329,-15.691510196735178,-33.64953392548056,-0.1090442447533544,-2.9510485421852866,-0.5213300486651393,0.4063836375519326,1.1199361973477642,1.197325967498136,0.22790512894228057,0.46215284706464643,1.0009817144582953
Run,0,-7.097762346837438,-15.68521005593981,-33.84993517311313,0.00277411870998176,-3.2624313655319708,-0.6411670932269299,0.08875336960179309,0.983609396567525,0.9054811425318449,0.25161359132364336,0.6023201946583184,0.8052612644016472
Run,0,12.27630828945353,4.179555491445123,79.41169293790797,0.07540741971858955,-4.5556451239948155,-1.2319248295302905,0.3033537210455715,0.9138336789114146,0.9465172107215671,0.5125860751194556,0.4596466679867117,1.0420116258246293
Run,0,12.200865848348245,4.194557723745006,79.5319035324775,0.1110237340213168,-4.512765857792388,-1.0029571488562394,0.235145980906041,1.037532046922861,1.0960449451977168,0.35033180564206057,0.49968692842492346,0.8456997035483679
Run,0,-17.79459520728315,-15.163481624944197,-82.54797733075662,0.29182076988169514,-2.575880348072629,-0.400568849542055,0.3844124167391957,0.9878241196428618,0.9080188515012121,0.3878633488658685,0.6452839334137772,0.8646539080302702
Run,0,-18.03476023237542,-14.857838094897344,-82.60443897771253,0.2907302051069343,-2.461093150407627,-0.5866722428919617,0.28943623886435027,1.0048967475599666,1.0998892896258543,0.4273538060722137,0.45740756661534476,0.8948695871335082
Run,0,-0.8621057427054625,-1.00039523038798,1.427020581771455,0.2608532819355472,-2.483781217127509,-0.7000468450269681,0.1383798599410076,1.0334177984765265,0.7601782423666044,0.48743041517310376,0.5694542756027489,0.604527463816904
Run,0,-1.1030399992117572,-1.1686882245080659,1.5543310665300185,0.27210904991258195,-2.47044840224415,-0.6264704029498646,0.43476238906276077,0.9613581565876391,1.0305173792906286,0.4962520014423325,0.6250023891915358,0.9346661719033056
Run,0,-0.9305050951627699,-1.211626051481523,1.3995466597113144,0.23436716925799247,-2.4527777405462685,-0.49148287805593194,0.21727942620379337,1.041886682323711,1.0617356125241306,0.6527674374822923,0.5567639041925202,0.7820896100226579
Run,0,-7.719591198322407,-5.263682625622538,50.13370473743966,0.8438714050372327,-2.3363836266329,-0.7394353071834456,0.011316275483570476,1.0057139447750545,0.8335875755546803,0.6192410062605137,0.6720184683139305,0.8604265273420036
Run,0,-7.639187825051754,-4.9653550535746795,50.07779939326574,0.8666601617887788,-2.172532347189594,-0.8145393188348777,0.2438638429567042,1.1212641359740951,1.0079452406578486,0.6619092576468794,0.5590176382646473,0.7524778932005897
Run,0,-6.1679241470806545,-5.398508666629731,-56.83257497715301,0.90409170902916,-1.0543129028862792,-0.3911022292865693,0.1170048239755864,0.9469460175577589,0.8875456823872423,0.4745309407416859,0.5982577544282963,0.8986164807484263
Run,0,-6.308262905781378,-5.35026081015679,-56.73285720121327,0.6782345809281021,-0.8850331504057636,-0.5297720619328333,0.2872566947630487,1.3017345914049736,0.7138495368660078,0.5329030194344515,0.32341506597515407,0.9350656641565483
Run,0,-6.201220679726493,-5.367102190694967,-56.71698405512332,0.6349953625372878,-1.0639421733533385,-0.29539344365673853,0.24103857479296267,1.1587939921784556,0.9955427809061905,0.7304280357032757,0.3436987683498597,0.9295357157108298
Run,0,-3.3695394731314856,-4.799084571543017,58.39278621681962,1.0589967346241587,-1.019269685901269,-0.5037160002783028,0.3239029209994312,1.0611169220218837,0.744544231924071,0.5804674082675374,0.20948850486530185,0.8285971293750836
Run,0,-3.4021596491121153,-4.635772456829902,58.19155786426915,1.2166457294701203,-0.9975267699035264,-0.5860888616167536,0.2987876310890953,0.8399390429158975,0.920124925584028,0.4653152081172295,0.48984451612154395,0.7737278199118309
Run,0,1.0153792155107562,-3.362282138844688,-61.96855881651884,0.4130133972675173,-0.38919552411902053,0.0012346051941300937,0.3903977806056632,1.1349816163138626,0.995051781064263,0.4510638198427297,0.5599461382860343,0.9715236350697845
Run,0,1.0680077963964885,-3.0130862561472083,-61.93334473431065,0.4166512506661312,-0.26899704191918516,0.033204222833515755,0.4320438116131986,0.863657955991121,0.7185745524955949,0.48480774932711856,0.6510801244742542,0.7166317935195932
Run,0,-0.5321509171696237,-1.2223819723240807,1.745778257152755,0.46622222619995507,-0.052204570032544334,-0.09465805136197317,0.3066512333511325,1.0585502474178183,0.8084442320960921,0.45986767830439423,0.5674605348381416,0.7793745006201644
Run,0,-0.5145969928480387,-1.302812803487975,1.8393115225228933,0.4138760738846166,-0.3647562877993928,-0.026098594228714127,0.1874417046889557,0.8993299038876112,0.9188500973762469,0.6800286129325921,0.5043272377108285,0.8981139310268688
Run,0,-0.7433069279948299,-1.3560330462803052,1.5948000941927138,0.3479171246852846,-0.0723077423594872,0.025275257167078992,0.43207335648659656,0.9236247975520233,0.7139830175087278,0.47551595244799877,0.6678135865484176,0.8066448835419092
Run,0,-8.944268841189654,-19.61988767339538,42.833990294175585,0.08599976052218194,0.49843386657443034,1.1342072542644799,0.26557665665917857,1.0395816018300132,0.805763179232949,0.5209657534682725,0.6270831062639303,0.8401571468008313
Run,0,-8.794508348092213,-19.83556720700856,43.04101486305281,0.12849002262404896,0.43025691130193394,1.2346515828840587,0.1336234066768887,0.9977700805210495,0.8813595221775712,0.5556404601043583,0.4817216872036963,0.7599836722341058
Run,0,-2.2877456583239346,8.678070673783084,-62.93716149469259,0.06543205233734312,0.7919739772293547,1.018895086464647,0.25986394532245616,0.793352506823317,0.7206742524008758,0.5155672607786287,0.550635307068005,1.023044537483667
Run,0,-2.29251457139447,8.604936015533552,-62.96209316646405,0.19809002095147735,0.8820053280318783,1.0557649944936414,0.25115323279890023,0.9848207530266625,0.6804829145508071,0.5447210613389123,0.4406981147451565,0.8979877070155333
Run,0,-2.1813589264991204,8.795764135603502,-62.97024815121361,-0.005308694975365588,0.8240135267000335,1.197652784470919,0.19609770743409127,0.6974407017151592,0.9714104163797299,0.4877204470642337,0.5498891196753083,0.7571995816926302
Run,0,-15.158894974575123,-14.969670826507155,40.15573952007205,-0.0216742188156495,2.0472752343144887,2.2013035893172814,0.1896467524982681,0.8848404142581587,0.8558842846686754,0.4920103533223072,0.5464508094163196,0.8096041486884128
Run,0,-15.108497957703348,-15.043798666707506,39.99996007643265,-0.044154220065482,1.8666663849613574,2.1289272037769282,0.21602024493298774,0.9946149961478985,0.9919914156844701,0.4009056821577959,0.7373647586966416,0.7877928084964683
Run,0,-6.282324173238804,30.268071913695298,-46.92185797008698,-0.12789279296892098,2.1567791850650795,2.2130100403042183,0.20649935867026367,0.9926461144050701,0.954384519106612,0.30371965915839494,0.5386031492080205,0.821440532451049
Run,0,-6.454336003760032,30.310160782249323,-47.07985337449051,-0.08346108427938245,2.2294699542885157,2.2939069647509602,-0.011214239726150044,0.9352081304241678,1.179697723406191,0.3889701646142283,0.652942184087542,0.8765828350406661
Run,0,1.4696079148299366,-3.5316540301310906,-5.035512755291823,-0.13333710699119478,2.0641692463338805,2.0098934812889757,0.0021436149404212013,1.017982172208562,0.9344428594684987,0.24083610482824552,0.6735473148178833,0.8219365872865783
Run,0,1.5898091358899955,-3.614123069375041,-5.061099819662687,-0.3519231009936454,2.313237039009149,2.0646214901023296,0.10509183072432526,1.1345481649017806,0.9563216025775946,0.5087115678849057,0.5128788267552344,0.9984245037661823
Run,0,1.3727258622599485,-3.5723108541205835,-5.262815952850508,-0.011976682811615333,2.1635183175940567,2.169973941364814,0.05478038705152752,1.0598121028592993,1.0942907689042543,0.496251041712024,0.3540371870116761,0.7613294526451276
Run,0,-3.272259866015421,24.09794596745092,50.45857872043163,0.19531184896272286,3.8183963467671833,2.6230062536661953,0.11688461569920838,1.0382162971477538,0.9815084746200092,0.38749645383968984,0.5789359170566086,0.8407045580427288
Run,0,-3.440417201353657,24.090599782312967,50.34466846880837,0.316315236735593,3.8621074886068483,2.7404356286532403,0.15147583563318084,1.006127418743695,1.0105474703886033,0.36537958744079585,0.7501910731386205,0.7137448546583783
Run,0,19.13354490585427,-4.824878745922542,-38.29572476286632,-0.04514554229961573,2.49795762262555,1.3078782158643003,0.1024299769905648,0.9837098596733705,1.0688731690164877,0.17384900377057644,0.727963821562943,0.869479698747956
Run,0,19.06050827720521,-4.572102538641121,-38.370104518638506,-0.1416789498571138,2.642409217779595,1.3537609864401652,-0.01154302531418809,1.1155156331648188,0.9273987699084802,0.2810598772779008,0.620493467914808,0.8247201432800579
Run,0,19.028423951758548,-4.6587216111443865,-38.310758556540534,0.03805212347589117,2.533810417386648,1.5004898274727618,0.018383733251408192,0.8145826846052975,0.9343459606495077,0.33928904091112877,0.6397471835353805,0.5099573758878835
Run,0,4.371930165475934,5.206704551775099,43.518785125346824,-0.4874718231736415,3.37714304732051,1.547740524201989,0.061026087611377726,1.131974690969777,0.974514306669684,0.40026688031399316,0.6778993372667801,0.8977029701202075
Run,0,4.462991411914205,5.1816387329320905,43.55388466591945,-0.33553145514857624,3.345974157656555,1.5000566084881106,0.10775321636888008,1.2095718501259882,1.1107497921349574,0.2636847934878026,0.681540843743812,0.642612193146165
Run,0,-7.325841177636937,0.005269217161867665,-38.87200170934196,-0.47757051501853554,2.1926663255143874,0.7154682480079675,-0.18711087766852508,0.9621086118863187,0.8949355527470912,0.09043973703282604,0.5269524819383304,0.895493291077375
Run,0,-7.047964111992115,-0.0491659626323462,-38.88677073764771,-0.5009333003240072,1.8555397157764273,0.6630835122512073,-0.034618252772003616,0.9482669731163438,0.8100911977523824,0.32793170859185705,0.7375004678074774,0.7128556695627946
Run,0,-0.6795641741856432,-4.016673435091819,2.5680743247031876,-0.5768557331639035,1.845133816093548,0.6612305635767313,0.08612274046773727,1.1318468238309254,0.9125973890370633,0.2982759619290485,0.6403689316217298,0.8598713839883761
Run,0,-0.7898166480844006,-3.9831666980340636,2.659535423734801,-0.5709297528316557,2.0262446438464545,0.5965319323520609,-0.04995271417006865,1.0630390053975698,1.0431070496581514,0.23123574598546714,0.44413248348631373,0.5918566484107981
Run,0,-0.6867059635061338,-4.35151108303593,2.5003686578377873,-0.3518489839462233,1.9672274522743751,0.5934229728458492,0.17313846734058166,1.0447544247468938,0.8379540135043451,0.14122536984887943,0.657622818947157,0.6793123512258983
Run,0,-11.207932295156798,11.866688279671738,63.08782213467156,-1.448660485018903,3.5171054179205843,0.48524588648669076,-0.04395150406865955,1.1738887207985376,1.0598132500135302,0.06056588257322313,0.6267306862412346,0.9587191908994298
Run,0,-11.363929767672094,12.012355683203658,63.06015785994343,-1.2585123355197068,3.407062461503593,0.30669760979114147,-0.10071972490694435,0.8345966555226759,0.94652431172201,0.029445627394939076,0.6137827165818965,0.7862301667960329
Run,0,5.880531458286429,-8.47225791573886,-41.39208908307714,-1.0757800979956587,2.548617407900743,0.4970669058097112,0.007520481654331074,0.8190120932657934,0.9412666557425001,-0.013247311541203882,0.6238655452596679,0.8516036171823751
Run,0,6.0717472317469285,-8.553261804388562,-41.392455442704595,-1.082744906261682,2.7505744132752348,0.2319698183508545,-0.017443352980594545,1.1972255108208865,0.947741904702444,-0.08321509467429777,0.6927972945525466,0.5645572575539639
Run,0,-0.7179223925900333,-0.9118736779484136,-5.940087218257668,-1.1613154191295354,2.603705419133875,0.3053056256875244,-0.12719789953565963,1.1708910400896118,0.9445784125238712,0.04456815523480698,0.7784114091671582,0.8295664955111498
Run,0,-0.7803145148049722,-0.6403514535477203,-6.102766370831771,-1.0908703009101894,2.662581962025475,0.30945457553867434,-0.026013835196103178,1.1606484541660715,1.0455654133900742,-0.16681089044095868,0.708284480811441,0.8791703849812664
Run,0,-0.7699157726755513,-0.8121905624963106,-5.965153777083869,-1.0665042192570533,2.346077167579697,0.427126792476248,0.057159400234302826,0.9174235076180857,1.1937854743016434,-0.08854879898711901,0.5359277371958313,0.7619798273470779
Run,0,-17.834324601945397,5.965001667882214,65.05312726634045,-1.174749831967257,4.35492108170231,0.9285969885008664,0.048003905366591694,1.136840084368302,1.0602410023732203,-0.17233530026964602,0.4916541433099418,0.6894903082673235
Run,0,-17.80915482608971,6.104431628556138,65.13749190351405,-1.2827708789475185,4.4059166608650875,0.9450849094659041,-0.06992148548488433,0.8609503462524618,0.9844949847873183,-0.12290400654338403,0.6528907949997433,0.850067486202773
Run,0,11.7810042479964,-8.831539797143675,-52.00233305273806,-0.796460692010898,3.289482170969832,0.9286982478573622,-0.1611588025678307,1.0772161663668909,1.038340837678064,-0.056214497577707384,0.5433040842447296,0.9036287067158411
Run,0,11.839805921366839,-8.892330957891092,-52.108502843165795,-0.7361355270938222,3.133312863006357,0.7488497463253343,-0.2302108852008617,0.9191055169850184,0.9257175107924912,-0.20199204451099678,0.6866601692282434,0.8646307377098996
Run,0,11.830369603636441,-8.70807531393224,-51.83450176819745,-0.8315297399370826,3.309257333389336,0.7284254808885996,-0.1677964899976845,0.9393347927502924,0.9782470518701936,-0.049194562873233344,0.6715291638035942,0.764824966671629
Run,0,-20.63795652967219,-0.5925152207093675,71.47997649103807,-0.5710783934827947,6.374552587028578,1.4907546924913375,-0.0046943168991654405,1.112276450897038,0.9732004775520202,-0.3506792405845277,0.4359034803227537,0.7784449729965214
Run,0,-20.62008159142757,-0.6526911645843211,71.37719514583925,-0.842650512163116,6.224085876305466,1.4687411592173854,-0.1955027106314456,1.041668212769085,1.1212905429175701,-0.15232916042054354,0.636576167741066,0.8282116592956948
Run,0,20.140501068748037,-10.228055897828972,-61.0858724506706,-0.2776800723669322,4.073610908446306,1.0033761796316938,-0.18520108662421528,1.0067590798809405,0.9776630963957831,-0.49151919680437206,0.4124393304106074,0.9782439718048841
Run,0,20.305062609744464,-10.32819980367267,-60.84546303629331,-0.21811650914668812,4.272421008878332,0.887175915083567,-0.07550377574326927,1.0488591774663096,0.9732968696187304,-0.33539751852711475,0.4157571616350515,0.7581705417254119
Run,0,20.1894301182909,-10.311747827291976,-61.09537985548534,-0.4561456915724459,4.346448739707943,0.9902476403128533,-0.04285772837098275,0.8420669420149581,0.6749369733210958,-0.2780774856852787,0.520607314005088,0.8584203023928657
Run,0,-10.850215426681487,-9.93078126486135,80.2255981272519,-0.5548612126672905,6.446522671707482,1.7676823921306477,-0.1854020663631956,1.125330366628274,0.8178527617891111,-0.49564155668717125,0.3865291983292925,0.8644752194025842
Run,0,-10.967958727445993,-9.795628982332905,80.15779088949239,-0.4799099431720518,6.325331108760343,1.7185552369865107,-0.015066600055804943,0.9977345900122828,0.6869696193257203,-0.3981498537291495,0.4184228639902143,0.8268888232185307
Run,0,24.583463832474504,-5.515604913144205,-65.56040932445,-0.6187241210643633,2.78238763073601,0.9223451332137027,-0.08583142317001388,1.110678850703043,0.8832546900928085,-0.5926606299256376,0.4254827743060623,0.8410488817949806
Run,0,24.24365585744651,-5.473106425336771,-65.84205954233327,-0.436205900397175,2.752232706930442,1.109122740303394,-0.13011030538233664,0.8353838860393665,0.8285032568782743,-0.7173125213137013,0.5714049330248804,1.0228283588489255
Run,0,4.629752582152548,1.3882066196943121,-29.12521569519348,-0.45363810155141654,2.189942714942937,0.697673491995212,-0.05501803565705615,0.9300067096168732,0.7824791339462216,-0.5747737769732267,0.5061885433340924,0.9346184519249114
Run,0,4.48657230112182,1.0824139413745288,-29.06847267410833,-0.19288352771165929,2.256555789538012,0.7662660715908584,-0.02503389092882871,0.930557214683154,0.6872020116238694,-0.6013166807895606,0.4288100560061193,0.8914910703772115
Run,0,4.464465449019433,1.153306347263835,-29.231133580875074,-0.23871899148207407,2.3287461073396587,0.753489690961695,-0.033270631705615644,0.7908629951460053,0.5989381122299363,-0.5276154597887075,0.47336435433855917,0.9794734113066547
Run,0,9.306763875986833,-11.75875856795276,57.93734994877408,-0.365168239078878,1.1646276899587287,0.10026410605824979,0.008219060914370413,0.9002583459463647,0.8597466223133766,-0.7538254906238285,0.531343209221248,0.9092466718245521
Run,0,9.091664453418593,-11.863516584126497,57.942662051078834,-0.6091019969997081,1.1350346014473516,0.19419773950191327,-0.1017269542812134,1.0379070062025608,0.9597752074690509,-0.7463785174150953,0.337740575202476,0.8325152946804791
Run,0,4.348864281305547,4.537766467690816,-60.95337572367219,-0.13257188244515233,0.3759306543786374,-0.23324712851363838,-0.21128661897285708,0.9313322663589396,0.9271536106212763,-0.5268585415396572,0.49171302661166943,0.927312804124881
Run,0,4.1709721216848665,4.659859162124246,-60.850183434068086,-0.1844038191924724,0.447477546651312,-0.05775933621212502,-0.24366311493939743,0.9980133787565258,0.7817873695096951,-0.573430555380895,0.44562547147970494,0.9327582282303928
Run,0,4.434952872723545,4.57096443228334,-60.952789505934184,-0.06080839436826349,0.4407814414121297,-0.18157202448907234,-0.10529092494520548,0.7297896817561387,1.0460654116015249,-0.5640216114938778,0.5057560515388555,0.8536349215923447
Run,0,5.002662013529261,-14.672043338507585,56.88666054526291,-0.36384253566740177,0.03538698262559526,-0.7069728317019588,-0.08698610947790661,1.0411154615902027,0.8378188600810464,-0.7034196606305377,0.3756304901120344,0.9628197590843196
Run,0,5.348508069350773,-14.75274064184841,56.84820345964509,-0.23333920013844936,0.05563368464145037,-0.8508621836643951,-0.21254012276292975,1.0108250526985578,0.8846357359272624,-0.46996464450087583,0.3509645602522755,0.8681544795933576
Run,0,0.2949388142586973,-2.328894621322792,-61.87278901336758,0.22730457115327507,-0.26746643494304223,-0.5630263629850857,-0.24031724199408133,0.9082016342579781,0.7194285049030336,-0.6010173134555719,0.37498102019026724,0.9371768140787544
Run,0,0.3059356093662596,-2.440490774338483,-61.76855401328666,-0.11930925882367781,-0.43619791253250056,-0.4639240798122076,-0.1736261893936213,1.027084824642635,1.0651915139287944,-0.4308352498089767,0.6008671519696218,0.9137385601347419
Run,0,0.05664742048525451,0.39868306912396534,-4.041434606988342,-0.03401258289214287,-0.36422644480514893,-0.46211738088755927,0.035922315823278775,1.0081844061936254,0.771659570676739,-0.6295040190549684,0.592587597262102,0.8178550953128179
Run,0,-0.005243932298683524,0.45350092114768675,-3.947319392852306,0.05552298267680006,-0.3060963894905451,-0.49683626885705295,-0.19144060306629085,1.0117644682150086,0.8453340489788536,-0.5845963222248373,0.5582605371052078,0.7882647475248458
Run,0,-0.18184364913108317,0.24952312494759193,-3.9862578412534213,0.10062556504645181,-0.3411002067740486,-0.5229120537232709,-0.0522899976586693,0.9075933377414047,0.7262602933574382,-0.5469179689592539,0.39597123092343756,0.7558870404095906
Run,0,-7.515926902891505,-16.909597543221576,54.61735043406969,0.67789912194287,0.20869889083513676,-1.0652917818463126,-0.060785520941739606,0.9854865611234426,0.6500814459992017,-0.749195833560576,0.38845144382659946,0.9720256416928241
Run,0,-7.456669044419965,-16.92167702589552,54.58292098304391,0.8347584516285742,0.195786834620929,-1.057422568897307,-0.14692695046141704,1.050062799096233,0.6900108183183038,-0.5068015587211603,0.5288627637843005,0.8106964370206411
Run,0,1.4779288595945341,23.85189007527431,-56.13871241359194,0.5190270880579266,-0.1030033174948905,-0.9335768364712022,-0.2767661181340417,0.8635736887374017,0.808790329043628,-0.5228797179759543,0.3862235123985733,0.9507795659369817
Run,0,1.4162010148133135,23.65766292014863,-56.35218997814922,0.8085372937968539,-0.16242333423045502,-0.7532662909141129,-0.013812947137811407,1.0268632871299965,0.7175807989627181,-0.6093686783046756,0.40670777535116936,0.7889682064371293
Run,0,1.3704509988727702,23.689101295002423,-56.14115464579371,0.8467919442904501,-0.16281714019631455,-0.9028991554913911,-0.08232760589796151,0.9262933740906097,0.683393244010699,-0.7026451372008753,0.557915751562284,0.951071844377218
Run,0,1.4098155710508982,-6.66945485835937,52.43772097255152,1.2478945836506041,-0.5530018833604492,-1.4414380814268115,-0.11183009739936135,0.8674634925320823,0.7617331456126447,-0.43660940722771346,0.6014236834228339,0.7266318083513836
Run,0,1.4922394148721845,-6.701583646457212,52.310189857637226,1.3426616765139523,-0.3682151252445812,-1.3218810476694958,0.011509399952774002,0.8056253649988713,0.7697704848785165,-0.6405762562055523,0.5550119906008569,0.6664054095460619
Run,0,18.340587421243896,28.271681721034636,-65.61295030981532,0.3367753105364567,-2.8690002265609746,-1.4271033909717967,-0.1492511938249122,1.0343068203141055,0.748235807311042,-0.3883495863386743,0.5910407876740985,0.6784586407483248
Run,0,18.50563669698481,28.310993460653915,-65.55392864823382,0.6018187513144106,-2.730301013819398,-1.4220856180959607,-0.18141658497825258,0.9621027710932261,0.8162328252303912,-0.5144579088364414,0.6647679981054739,0.6905071847054454
Run,0,2.2196589074981077,-2.5670806133583057,5.347459253299198,0.4635711679094284,-2.8743364557852447,-1.60054474635022,-0.14127883865556143,1.0644825810713971,0.8482346047298749,-0.34486588336729174,0.6070741147864965,0.9759809655356968
Run,0,2.3115760588472662,-2.6941010937994334,5.503901283666508,0.5509295282515293,-2.9390983754898348,-1.4773114053208618,-0.15226820419615272,0.8904521426218817,0.8974409209099846,-0.48403059661005826,0.6324115596210121,0.9192966562213436
Run,0,2.2038391709056264,-2.4551523968519984,5.300454097439653,0.6268447609787966,-2.986897532340089,-1.4134379907703716,-0.10538368268013315,0.9272032642074636,0.7334560805050699,-0.5149201233553429,0.5196109011430408,0.9264762249135005
Run,0,10.739213580391066,24.791472820233697,42.36791566680785,0.0005524182148821388,-4.919388104626382,-1.837123081697303,-0.1340418316107602,0.9593405300349652,1.0756525010053766,-0.5283201997827275,0.5678347395373278,0.7061435968465554
Run,0,10.781522745683231,24.859047714324582,42.43305346737324,0.020249122726162534,-4.8460153073342,-1.9426773267621877,-0.008300476896558651,0.9650081935961791,0.8232794711969387,-0.4497439006289719,0.6910346492058836,0.634726748099768
Run,0,-13.827769033395949,2.7570869464364782,-48.8811855872533,-0.13786668161135102,-2.839797036234898,-1.0418989616182937,-0.13217783651090714,0.7995380638003321,1.0772851074001077,-0.5030980222611163,0.5692641936653348,0.8128341765346906
Run,0,-13.709170739722357,2.4976923733224687,-49.162524555226064,0.0025990603347279626,-2.877889149460782,-1.124611600261446,-0.03801538725811488,1.038099699563162,1.0446888684390183,-0.4138167419485731,0.7125747992057749,0.7059377253093343
Run,0,-13.920673022598931,2.7230243932243274,-48.89181188552531,-0.15596162271139846,-2.7933022845263884,-1.0378162661003065,0.09450144073950906,1.1651768984722373,0.6927871690607935,-0.40270396768793004,0.5657236298511512,0.8151193283290369
Run,0,2.517780941637857,16.51017225907612,59.18069624698491,0.05930690040652939,-3.479757264566379,-1.3287854934843033,-0.013282316878530993,1.0685203574566493,0.9687322780625759,-0.2365979341546781,0.6081013327105329,0.8031637719494785
Run,0,2.6616706818508855,16.5796224483224,59.226729316656204,0.03864079931605226,-3.3830014809096647,-1.2839104830867856,-0.01926836618148091,0.9278193546625528,1.1720744072381553,-0.42531079205597555,0.6121277862615522,0.8238247344991643
Run,0,-11.149364049810172,-2.9752977031352024,-44.94927208660178,-0.09143751334631826,-1.7220774298926784,-0.2634303764597198,0.2543565773870882,1.0268816314040776,1.0447901215981306,-0.1964578595716951,0.9017953374645789,0.8089098235711331
Run,0,-11.054080587451338,-3.1723676169190163,-44.82068272824522,-0.1456064987976434,-1.6776782357814108,-0.2778139081111154,0.06698682375796045,0.962940410879513,0.9642417752232818,-0.19737693552218075,0.6638737820361347,0.7640414924821383
Run,0,0.09876317232756904,-3.7419999582532246,0.588599450170517,-0.005609569876269625,-1.392970891533858,-0.4617608177442549,0.17128856680451332,0.8620413010761957,0.970568336323662,-0.26453740229506506,0.5219873182046285,0.7757801047439212
Run,0,0.30859408360714813,-3.4743035168947802,0.5468164288907316,-0.008005460117183383,-1.6390907946322073,-0.35492849061432036,0.03424682804587439,0.8828580218575078,0.869646847383085,-0.09388304363017744,0.6278288444428425,0.762611829712161
Run,0,0.1695785801372066,-3.5248462971853165,0.7183844295089162,0.13219653256374864,-1.709223722849351,-0.5320189200111984,0.0021410542939388003,1.0675234982780812,0.870726668648807,-0.29551036106776984,0.6890797897998137,0.9545719819733594
Run,0,2.4884152535952913,19.440096337221114,70.64362841938099,-0.26011857398192,-2.053321902603471,-0.1556582486606013,0.2531587878085403,0.9566730205922762,1.1141742643637307,-0.15513891586774153,0.6703852929471199,0.628626668874647
Run,0,2.582052266000076,19.458207023655216,70.3407531600676,-0.23638228774007475,-2.111432986209462,-0.15618847158914043,0.14494344950923335,1.0960885626483143,0.99356708556686,-0.13523737583815176,0.5199998794835392,0.717106590904389
Run,0,-1.8877332254079808,-21.145383527081155,-69.21069981701427,-0.13301696299217494,-1.9892283873905265,-0.39698024804275917,-0.04010270418019264,0.9220027275235393,1.0979531714252095,-0.28332228270761906,0.7485322823496693,0.6487672683440873
Run,0,-2.0190208388857522,-21.06473838147237,-69.20654321456395,-0.1960420776756464,-1.9427554867741093,-0.38713989370676416,0.14973899672158608,0.9573556297476831,1.0083040712450175,-0.17342427480628475,0.8055231067296136,0.801828536890016
Run,0,-1.878477256444636,-21.240164339093848,-69.11421377288552,-0.19945710136283984,-1.6947180890535158,-0.1563120436543249,0.022477189439468706,0.9888707446184342,0.8274193453373211,-0.018066973525705715,0.6227116664338694,0.9551367443196584
Run,0,11.209999837124002,9.714624903970186,70.42210571478246,-0.6825200108943041,-3.7539266880912634,-0.6879392819717925,0.16921382096477855,1.0653819961718183,1.0533254461336234,-0.18715533742076595,0.7343673289810605,0.8209685456693958
Run,0,11.285831822018105,9.597564429681588,70.35937713486057,-0.8907510358871699,-3.929737984956565,-0.6015813372703486,0.02599241516548957,1.1423583807447177,0.8875765893478181,-0.11773894294183751,0.6045914584719759,0.7797752342515627
Run,0,-6.904761405567834,-18.575472485476364,-55.216816995688355,-0.7545228921949073,-3.3362292789756123,-0.7029159820588403,0.03542438112020792,1.0144635375639044,1.0655603788870693,0.03197659377288094,0.49350645163598095,0.7809015559744008
Run,0,-7.148442499318236,-18.632375870949616,-55.105562670176035,-0.7781084162566309,-3.283919110082156,-0.596575585072283,0.0703033462011535,1.106718669297003,1.1186689205130447,0.012153272960699976,0.6074420066442041,0.8810084534308155
Run,0,-0.20549016648702828,-3.6339825252477542,1.9889964164522773,-0.5838198907367811,-3.4281472976788705,-0.7394586296987322,0.1660308783282752,0.9108270832379486,1.0354756304188029,0.16451242822042061,0.5653557470877458,0.7442398484890931
Run,0,-0.4227195612807729,-3.6344548994153616,2.254290779000403,-0.673653423713572,-3.2666726728683093,-0.7323524629206111,0.05949822254890151,1.1072901204033179,0.9067508595782096,0.17181928667684127,0.5079704297707454,0.8296785299697901
Run,0,-0.4290062363447391,-12.57955296375567,5.128238076418511,-0.8536285363981054,-3.1915079552078933,-0.6695703303438016,0.3498034771389424,1.0871862774560201,0.9171732070931409,0.14438564197825646,0.6476013478089977,0.7658040356607769
Run,0,-0.5510223300791488,-12.432488131796052,5.331662682328545,-0.8749877706004988,-3.609383139830281,-0.728543166908423,0.30453219917911284,0.9205075177509875,1.1096286608526726,0.24910448837794685,0.5507129150377312,0.8081139580591125
Run,0,-0.4939713325945731,-12.741196920111387,5.0701544498765925,-0.7163240146403604,-3.2814820795718647,-0.7818390006937426,0.11786168303640164,1.0199186702599177,0.8884892664044394,0.19202757811516066,0.6362222806859624,0.7624241960028751
Run,0,2.2062648063109283,-12.202558735082082,63.642371918078624,-1.0883089179911833,-4.62638427129306,-1.072870679477352,0.12302042415749939,0.9360346679467813,1.1314583409445795,0.12904043617272482,0.49111329972181844,0.768176183621149
Run,0,2.0075219163849023,-12.305997551225307,63.65090726367526,-1.1262446936497512,-4.684953131276351,-0.8996222773450948,0.09895559791526937,1.1257685524380197,0.8293758711837746,0.14452406445962426,0.49626852519959425,0.743317603739624
Run,0,1.9739091378030738,-12.141487177515872,63.71043659389141,-1.0988852695908715,-4.591695411709894,-0.8590878701391989,0.14863364819567498,1.0787593894240932,0.903514309358437,0.16383864379584162,0.3274268931219559,0.7396230831472286
Run,0,-6.102605551694107,-14.511874900624548,3.9577083030681997,-1.1256694758058365,-4.0021711291130675,-0.7002332439267458,0.07587183734912299,0.898031438270961,1.082994180603957,0.1609732121818666,0.5330376910891852,0.9157142337883644
Run,0,-6.340227717075967,-14.456457077059108,3.7093293989650515,-1.006765068655096,-3.84588463575441,-0.9839064867361511,-0.0016143074445573724,1.0156362621215347,0.8694024534201867,0.27245388876540555,0.6299751201594148,0.900351289103967
Run,0,-14.755325324452723,4.541922381241612,-71.27520810599687,-0.3129770209511178,-1.2397188287523078,-0.38824115937957465,0.14038252354703443,0.9100606903158435,0.9670099597642254,0.2046782927009265,0.49771224653879925,0.9237892739651724
Run,0,-14.629142894052869,4.617140854434809,-71.17103262632648,-0.302141552207326,-1.1507913102404292,-0.3848992247945758,0.06569938337539546,1.0510936688193089,0.8487433339191685,0.33273138883938047,0.6019717822353263,0.9580615115467165
Run,0,-0.3962702457513559,-0.3210280802556962,-2.228466707349216,-0.2619732154974154,-1.319717920875762,-0.5089795909954425,0.045865913979555265,0.877830306497983,1.030812376822742,0.4001752507768798,0.44832748313473153,0.7568870311529934
Run,0,-0.41852559457782107,-0.542409414667762,-2.061933712556991,-0.2529392289765097,-1.2681092004331709,-0.31513793258724515,0.1329658728413618,1.0679568130922699,0.8498870048615546,0.4819852710021912,0.5121572446862089,0.8327218429967532
Run,0,-0.5120885707522815,-0.45740386752149886,-1.9940605984954836,-0.48380729835348085,-1.3166589567766283,-0.3920272786396056,0.161145788281942,0.9204574766961484,0.7999285041552172,0.321849792789204,0.6995983094624648,0.8977891208565387
Run,0,-18.516874572399608,-17.815097282501032,52.10106194100691,0.08041192925725035,0.5440468303793569,-0.29790157413411145,0.13417625802044503,1.012586044445049,1.0177447454599693,0.47274841575422394,0.4911742938626407,1.0232463762899786
Run,0,-18.406435759527373,-17.744028159603047,52.25602467171236,0.11765061357914068,0.2838361217484058,-0.2852943852203471,0.11307249211280296,1.105985788219654,0.849177536146475,0.3137127874163803,0.4351516101337889,0.8974180647390825
Run,0,10.130670037220254,16.216063313548403,-68.14689460526328,-0.11192611818003176,0.30648906160819905,-0.08585266101554628,0.3696876903512466,1.1344007510436944,1.0175050609476632,0.19611931425197443,0.530142728920052,0.9106220382646705
Run,0,10.16803389281713,16.249866912509447,-68.20667253194483,0.004223166477525728,0.22598906388285267,-0.3514887224169935,0.28456324829556445,1.1673750703659058,0.8624364917828367,0.26365420567454,0.5235597502603613,0.9455142794315124
Run,0,10.077784011398935,16.25846696949907,-68.1410175381529,0.09229841137259656,0.2915315826212439,-0.33429582543238257,0.21618298637272967,1.0103537600818637,0.9533841910785755,0.35629906240399584,0.5014997954363668,0.8049801881717329
Run,0,-4.931591355402151,-12.52934977000149,54.53572175664801,0.1896342957189889,0.7253251206267126,-0.4066760107086016,0.27131200994830884,1.02694764823784,0.8940947677083867,0.34203121571700784,0.5259319819338002,0.9016990119566644
Run,0,-4.951332365893568,-12.607589816762099,54.53242061000919,0.13513316531283812,0.6963419130450336,-0.44042158959627536,0.18543625182000414,0.9733356321087878,0.8551055860353582,0.3799474226403927,0.317990110730341,0.9419072616039811
Run,0,10.512183002715041,31.17416626586137,-59.470980051205544,0.6170933184014924,-0.06706198120294041,-0.22479929160634687,0.2044994403502454,0.9472916584758213,1.0335235745944342,0.244651679695373,0.39768674182348906,0.8911461251925598
Run,0,10.289896367029847,31.276340557370002,-59.397755901662734,0.600076258208765,-0.0640674274294119,-0.15704309059596275,0.404113616837135,0.8246990010562967,1.0117896570786047,0.5073491649255295,0.5459580224319924,0.6373788107720575
Run,0,-0.33757104870603166,-1.5658089154561634,-2.126348382840612,0.45840102209804057,0.026373084113507278,-0.05531808972900401,0.266500953749218,1.085053436188461,0.9603605134204853,0.1511059772712245,0.5921524610239023,0.8489975648725785
Run,0,-0.2539076621831787,-1.8763204486616674,-1.9905391128734093,0.7222382956179954,-0.1607154027841875,-0.20728413687154285,0.25082662220107177,1.1172716676915917,1.0019759047191947,0.21488996797881754,0.5521729891623736,0.9824837896776863
Run,0,-0.3837387525074898,-1.5712879063933525,-2.1137057218624564,0.5402847755597707,-0.08074643006441984,-0.04634107650418927,0.1181510729497808,1.217534172713101,0.8587870361873645,0.3085508551060308,0.32545151477311574,0.8099799303320022
Run,0,-22.137778847422606,29.079441094380616,40.34651223155848,0.852168781355187,2.0524679716582943,0.4246499793696449,0.26270119549289683,1.0712534601219108,0.9488421158738927,0.36134897750351336,0.6224278529806004,0.8758216331538804
Run,0,-22.116781480699174,29.053156776805974,40.26248669683494,0.7155096587328825,1.814355722690574,0.2149933881336679,0.36447090418116157,0.8933387611437075,0.8821787612442915,0.36581431193416786,0.5685658388990456,0.7373690632846395
Run,0,3.209017584036897,-1.6726396572389723,-45.42807408714824,0.33000755688408023,1.9793501757731136,0.42333484425191814,0.2814282804211954,1.0618054705247193,1.0748803526005943,0.14073218759748718,0.661053151959222,0.8417028884041511
Run,0,3.341995616105931,-1.639879139028825,-45.56016815850028,0.43636519144838193,1.7566190136234556,0.5405454957501513,0.037490211450951855,0.9705905249753182,0.9929098744822098,0.43516300741485653,0.6780133759397085,0.6699165096879097
Run,0,3.2178548119553696,-1.4657718247282083,-45.42231482199226,0.25232715715070797,2.0216359670848543,0.5597659036299183,0.10061101581003162,0.9850718688231895,0.9995235994730599,0.1867612569682378,0.5116427330216666,0.8088007045761895
Run,0,-19.965173122599214,16.82156958558231,33.25979456336492,0.5387143634719244,3.9668168270576163,1.254077832284334,0.29074828211582765,1.0555816184016757,1.1349023417260793,0.1860140901820157,0.5418649210327755,0.7491639405741819
Run,0,-19.76354793240642,16.891707679675783,33.52876712524177,0.5163678435829689,3.8521414675084906,1.0566017137130446,0.16725584068602528,0.9244029697347547,0.9662138993661616,0.03696041642699713,0.5580374994052473,0.7280397340645679
Run,0,8.736829165860803,-1.4951204677013985,-43.80461540263188,0.37289973434294765,2.8494634216836348,0.7721533487443022,0.08096687207412821,1.189525898766839,1.0776737977542747,0.10169623403635226,0.5356279532612741,0.7980951250468842
Run,0,8.849440768406023,-1.5811623329992261,-44.0083826937683,0.21153277255804034,2.9227043243903177,0.96745235357596,0.3252865354690143,1.0983584383242593,0.9491034713238424,0.051935624077915576,0.5032833398280421,0.9012881423735978
Run,0,-1.1343910199968115,-2.2060975323376253,3.011925581916279,0.3838492413515805,3.0368512088049844,0.9570741980435168,0.1858798238729384,1.030155846314484,0.9308231788764711,0.1246054356102278,0.5792061583294963,0.739054531511109
Run,0,-1.213616468719974,-2.131586344900281,2.976349173833211,0.342573605502184,3.0163999441248976,0.885783431745286,-0.009348309876991368,1.1000485023252093,0.8647742692736633,0.0061548615593519165,0.550353355428569,0.8245243582963098
Run,0,-1.2271411297465236,-2.112410986869098,3.0551078214356644,0.3373787805572813,3.071113953006294,0.8370936339044142,0.1463981224670943,0.9942534462469547,0.8927586745016346,0.2369720418078759,0.5688208073573399,0.9020910219986329
Run,0,-26.414004874784283,20.51958686929462,48.32813371664653,0.3103182290492333,4.678959315935813,1.4300734649507463,0.05647379881726905,1.1683436866320762,1.0395177131270266,-0.032631141156972354,0.5968970832773531,0.9837541472218769
Run,0,-26.285024298422517,20.714088870575097,48.13868903015494,0.19032317636114027,4.970017469483644,1.4544401716917212,0.09814311418069796,1.073085610272112,1.0364218065549684,-0.022516576957289647,0.6544547706856508,0.8094441120399425
Run,0,21.96843474780887,-21.908859607847994,-43.40907037172231,0.003526220692701365,3.1844318703455325,1.1445800386302534,0.16993283464117506,0.8448094127655695,1.0769114354570375,-0.06623262836652724,0.5035354052449107,0.8945234441377652
Run,0,22.11087806781548,-21.87258444855544,-43.05887192157363,0.0016757946177197725,3.2837797068944674,0.8499017097299426,0.17881753379682802,1.073396964740303,0.9336576133116311,-0.19506796523909034,0.6084938280855888,0.942457015455921
Run,0,-0.9128795525197295,-2.5660888556540025,6.4383176679487635,-0.08980723102905687,3.4322901289268533,1.2184199323612637,0.009577950978331286,1.2164571022109993,1.0035249436491511,-0.11864229061526871,0.440421779571186,0.8399371146829662
Run,0,-1.136834178866969,-2.5437089665889494,6.634882214964184,0.002976824288689159,3.4019182071058367,1.0292153107424635,-0.00320646316341798,0.9340235501599878,1.0599786558783508,-0.22694957231983773,0.7054827370404501,0.6949736809992669
Run,0,-1.1088537423903868,-2.4500014219393105,6.5560922696251405,0.2630607115091369,3.3622514023081753,1.0533426127408116,0.14534776086735607,1.0308706789342812,0.9979890020398046,-0.10452872134726512,0.5985491899427394,0.7852486374607252
Run,0,-16.81969666566997,7.110130804606145,52.797525748459044,0.17256294015679202,4.675366420883495,1.5765664672892936,0.20652537357710637,0.86994912528389,1.0133329099102386,-0.2455174586669644,0.9203221586481128,0.7982917989274503
Run,0,-16.712893059549778,6.988949129190451,52.72281690626522,0.16904907423206184,4.824234048598363,1.7383427795865276,0.2808384108275217,0.7840398248629028,0.900918466935343,-0.2959684565195449,0.6301581259660648,0.8739611901592383
Run,0,23.386449453292215,-15.623689934981396,-52.98253929132432,0.15070281706275074,3.1207092174227946,0.9685667689616587,-0.044536609993989895,0.9073662047528442,0.8852323496824896,-0.47692305540541635,0.6204320650001536,0.925393687608712
Run,0,23.35088786946245,-15.597463223213676,-52.874599993326484,0.06703239893303196,3.188039904152518,1.2202581952880576,-0.01526550435255794,0.9266811083276831,0.9388613069946734,-0.3171709652077041,0.6291169172133723,0.8687134761511445
Run,0,23.176934647376488,-15.681755396926002,-52.75085083881233,-0.011645156503443554,3.163876081366249,1.0736319319655363,0.09885990783780685,1.0117934610252142,1.0279340434955757,-0.292519311848981,0.6770573651499854,0.8806403414291158
Run,0,-11.13238326367873,-4.240257104389405,58.82346210668434,-0.08146361777355948,4.466055023291428,1.7219996353687257,0.0794153518581869,0.9086169678574331,1.0070101647922098,-0.4070518062078596,0.49751845367730047,0.7978920870324788
Run,0,-11.35718888015562,-4.193501483858323,58.86387038212961,-0.133237361890475,4.507357781866695,1.6482152822886171,0.12467949053658989,1.0585421442103857,0.8835869900136656,-0.39636530890162164,0.5721324385897897,0.8401563872046338
Run,0,19.83519006683285,-13.40109648871009,-55.398354919192336,-0.11500254440418967,2.665161805511464,0.9753926079024453,-0.009725258568361306,1.0406697591452123,0.8554237685327698,-0.4383709585014702,0.5809395132134029,0.8687289172080702
Run,0,19.868750460561575,-13.68613486372573,-55.47061375871962,-0.23547259917798555,2.8979861480894575,0.9003256853907621,0.045687760310297365,0.9236245179641819,0.9879912017642002,-0.7028238357399186,0.7686421604354039,0.9589953930982412
Run,0,20.02927507928385,-13.70714247070623,-55.657501272335445,-0.24990833941606944,2.729972920844815,0.9489384538833823,-0.23421747835563278,0.8149115311900634,0.8546499481489095,-0.6116975544350068,0.4564746344747188,0.8217862500770226
Run,0,-11.541131215312499,-10.718317017737812,55.47485423416025,-0.43878713162173777,3.8992495587958746,1.541209331383365,-0.025453327139327624,1.0054181659397825,0.9512027093960792,-0.6053433577707236,0.6068960127378964,0.8119702840660298
Run,0,28.148138124305422,-0.5905232107522002,-107.94294560248576,-0.2309534504483765,0.9937633955650358,0.5340637591148959,-0.23561883857231605,0.8346418360556719,0.8721384940354523,-0.6055060327366425,0.5162008954175812,0.6744983632587385
Run,0,27.85820929264212,-0.8690931919676232,-107.80939218492645,-0.29286842077480385,1.0094743990480335,0.5147872662756752,-0.17841677389173902,0.9455579799742581,0.9132953657548925,-0.34629182941695347,0.70111270089934,0.7460741771085089
Run,0,-25.066406165503505,-19.213925908153957,105.32228683071813,-0.8738319779930104,2.8423551014951967,1.509195764494672,-0.028127291750840146,0.7719575817151837,0.9573023661145394,-0.5833959561467614,0.49232988949922346,0.9893228838838496
Run,0,-25.18151664357064,-19.19090292526306,105.2653180957875,-0.8173380568930579,3.030766027336775,1.3392196634958744,-0.10100979496746287,1.1078921602569876,0.6874029861755605,-0.6350629586006247,0.37868269923923836,0.9702968478455662
Run,0,-25.141224610231564,-19.26569386144545,105.15269329313085,-0.8706349836722896,3.0428091998466287,1.3526351382417752,-0.03080386625349083,1.1316236738283372,0.9339248027976844,-0.5993696223112461,0.44058324741238486,0.8090448842992675
Run,0,7.75228999404353,-6.2448001542511165,-4.722765863166054,-0.9851185436536162,1.6147116876000451,0.9332955540174689,-0.20518879987287614,1.0460605913638965,0.5873832289209076,-0.7094879744621245,0.36207209601175094,0.8729913843304675
Run,0,7.763133556713345,-5.873756778766777,-4.606400767196494,-1.0451380541260162,1.6993439132939148,0.9525217295714102,-0.2055848644443597,0.9421824836908018,0.7282340887481373,-0.6443733490259593,0.4591447101705689,0.9060711524012965
Run,0,15.401639622432354,10.730229875128245,-54.23695281753968,-0.6092488547268915,0.6693950187265871,0.24117291941381486,-0.037600721474582086,0.8960793904945483,0.7077476631793124,-0.4099407630194628,0.3421334006324117,1.0229187139805618
Run,0,15.320128889485726,10.727918207167079,-54.10529910895318,-0.5177596485251814,0.5065122034682787,0.1847596132650813,-0.17238284680219623,0.960908392283304,0.8336485429879336,-0.598785682282778,0.5340122619547114,0.8183142654780646
Run,0,15.250051845870177,10.772181106078193,-54.31889626619333,-0.7686856502805073,0.8204416641198906,0.22449820909197715,-0.07740918148597563,0.9774777433091968,0.806176909060456,-0.5911765166880365,0.32755758699785426,0.8061896492605881
Run,0,0.4397778397910266,-12.133555745389467,43.65722054317102,-1.5334921970523405,0.28834475449017044,-0.008169502294291052,-0.27739538693217497,0.9620974173112983,0.7360776147930107,-0.6688458752553113,0.416587096746149,1.0467733689680956
Run,0,0.35201708235589985,-12.251422772360174,43.69426765730266,-1.309170591062254,0.16254573570625633,0.027314414643056596,-0.052707582196958314,1.1502940730676943,0.8048225101448125,-0.7200552804449091,0.47422375061490357,0.8247528546720259
Run,0,12.734055386353297,7.60170784274301,-51.43216261028981,-0.7079604856082173,-0.5633907996788932,0.008309470259786997,-0.09862150820105883,0.8936253663061996,0.854273567916534,-0.7617464921502438,0.49575652078918736,0.8504097628808798
Run,0,12.780316719084702,7.639913854047515,-51.27137824171792,-0.6681583999313512,-0.5948258874772798,0.2421466994781132,-0.029947581603177852,1.0239735233501517,0.8067867672801171,-0.6807295318339512,0.5151317742376087,0.7714583876114085
Run,0,0.739451060819159,-0.4277712188322318,-2.1286481803693835,-0.7786016812529807,-0.760773099141306,-0.04654455008725826,-0.15895971655617563,1.105153132297104,0.8732176509744078,-0.7423110997426103,0.32542980861283866,0.7890911413961147
Run,0,0.6814097793228945,-0.2953345980010958,-1.9060456303285198,-0.730912630479512,-0.7336014790107195,0.1469687349790271,-0.012361240857151665,1.0448717956271496,0.7474468490758979,-0.5387237076689608,0.28227304388284685,0.9504078617184729
Run,0,0.7875740539052005,-0.4391172653114073,-1.9932831432373852,-0.7342576886135799,-0.5700492086864055,0.0502303308700945,0.06052970781519507,0.868415811657034,0.826179899838449,-0.550543126736418,0.5164189726449647,1.051017216251825
Run,0,3.345048547053341,-14.8615329250003,50.283716616617156,-0.6617292127432427,-1.8574675949036457,-0.597662037545659,-0.13398845812151777,1.0041135100743632,0.6750876294955545,-0.5522989998495331,0.48642048940533994,0.7187079112832382
Run,0,3.074304466570885,-14.81322242633152,50.4555743647808,-0.6886710882522887,-1.5464440914926543,-0.6234486646376832,-0.024395760697392826,0.9306531836797319,0.7379626001307817,-0.7641651387934534,0.3510410708523475,0.935547038067903
Run,0,2.0322388609095197,17.950347928561023,-49.58353484165738,-0.0862936357411078,-1.8839096718819117,-0.5263926828102035,0.10381713171624486,0.9401461333175879,0.9106764938479749,-0.7576525976490968,0.44418379813801057,1.081047908284743
Run,0,1.7911741270438661,17.999356523061046,-49.53247149383316,-0.1973432018690388,-1.7893681641699226,-0.6605130324043077,-0.10125152163016377,0.9841852301534535,0.809100413409754,-0.5067874502287361,0.675279393904529,0.843759053304301
Run,0,1.7673759236190465,17.908511822717614,-49.82742054290139,-0.22782598207380736,-1.5534885861196825,-0.8677753261573209,-0.13663742126448347,0.9742639964549363,0.889506561559906,-0.44606698907141284,0.4092988087364218,0.8278841987547884
Run,0,5.932088361358715,-8.035837463434614,40.01875131352533,-0.3463628087855268,-3.339704215773303,-1.998068982664548,-0.1354416713786385,0.932419814582713,1.0703139529492696,-0.46739433978086914,0.3859095859841942,0.794576442991671
Run,0,5.803660848408802,-7.967640923928097,39.899547753757,-0.34669245486158146,-3.3834087484869038,-1.7583113347326358,-0.0962845704095596,1.1680814591593873,0.829298649858065,-0.4241683009102466,0.5051103131966822,0.7702174102059406
Run,0,1.8196046789660327,21.08838069940335,-41.825139838537005,0.40492159938826094,-3.2331477882041995,-0.6680326851643911,0.15843164777942642,0.8356091597241249,0.9581159149281161,-0.5247188086126326,0.47016107613520347,0.8977069913793208
Run,0,1.5905421191470541,21.281172746384357,-41.51019801297453,0.36216176421861057,-3.0870354611792314,-0.5720541429032777,-0.06882751671473324,0.9374477106846357,0.9989209560598634,-0.46388477450446813,0.2831492021908912,0.8058382723109143
Run,0,0.48676282644710905,-1.1893422275780086,-6.0436218543517635,0.28594389468143977,-3.3469479251814365,-0.5702203169383641,-0.013531497764686172,1.0595377073477148,0.8044277266182507,-0.5176255396676365,0.5021794093605145,0.8206015285186019
Run,0,0.2729806760306601,-1.2815780044175478,-5.901019800094805,0.1973476073416891,-2.9819980749295634,-0.6336173256470341,0.2028786211552671,0.8583034928979939,1.015992683144508,-0.3318713882957778,0.45824210717036595,0.9011316163116299
Run,0,0.34123644858612373,-1.239014374064266,-6.029749238224586,0.2963122946133705,-3.070933031180429,-0.7835272338447924,0.0377513482868279,1.0966067052882098,0.8806634749844394,-0.41906056572867156,0.5809458108052175,0.8997838612134202
Run,0,6.576720120073624,11.925938737873057,52.04142364171298,0.5583581881213302,-5.4334135194210536,-1.0918756188695407,0.13737770802703606,0.8234270997519153,1.0682172970166834,-0.33719120472535047,0.6908592602281993,0.7739037471784532
Run,0,6.461043059572261,11.94674961015529,52.010825074614694,0.44392528625378697,-5.3448462956821645,-1.0971230196603357,-0.09830832827529332,0.8377733328711481,0.9780281757789082,-0.4710246618293898,0.48662739773794056,0.7812932657815821
Run,0,1.0289105227640265,4.7824935387568575,-37.7464126523658,0.4627282250336785,-3.6734188631049705,-0.9915779660999401,-0.035661249886626736,1.0054371966908993,0.854945782374458,-0.3169047125938615,0.6369712230079031,0.8532146266854109
Run,0,1.0739851184214602,4.780888527098162,-37.78052671310877,0.2044300630292731,-3.588038699570928,-1.1477972456124779,0.03817968410379578,1.054163441345017,0.7844371898253543,-0.2706848512650837,0.3787698181335662,0.8416782440105501
Run,0,1.0896511035748653,4.816965959680742,-37.8621663844044,0.4758323131263721,-3.8377219686224335,-1.2129777489287523,0.022368777053037067,1.207329396788035,0.9267413149497266,-0.09646264018524581,0.5418360570816343,0.9463794724092439
Run,0,17.491276865430425,8.348427008576488,47.09929310824664,0.6122325492413309,-5.513015892516249,-2.217716220153545,0.006826797367770948,1.050113133054428,0.936909593047819,-0.08828170390855723,0.4330739658681263,0.7431997229871415
Run,0,17.585922209569,8.44399257341101,47.00676666876617,0.49172954083333864,-5.792749556375972,-2.2032877564442277,-0.07238900272506456,1.016097779817931,1.0264218146767898,-0.11078709252370406,0.3921597005199944,0.6387623145473176
Run,0,-19.116757801172295,0.16882477119428005,-38.845148600169516,0.6126657553378827,-3.3114486010439057,-1.1753660911827515,0.1615007985465854,0.8725620660578977,0.8710397573488191,-0.19313728062920793,0.6950136683605483,0.6014582689615644
Run,0,-19.108065881782213,0.1800022857336905,-38.79928933092987,0.7409945267691109,-3.501681055023223,-1.254434339096222,0.30764337480240844,1.1810113983672255,1.1133612522995628,-0.053275760085192775,0.6191632436635208,0.6323889918859338
Run,0,0.08258535001930867,-3.907645493078673,4.522398685092192,0.5341402201617039,-3.322408563158246,-1.0508741922426235,0.033784788003007174,0.802773962649351,0.8570750828948563,-0.04957679770994797,0.6080363269478113,0.95474809326785
Run,1,0.2581245023211155,-3.80294770580527,4.351685651252907,0.8507699492261547,-3.3362454505359205,-1.2016025547487654,0.21953175362121113,0.9678317172970781,0.9954975270181454,-0.09475571257980447,0.568458227352572,0.8706970521208143
Run,1,666.4744624372995,20.709936130747938,-11939.858068222456,-3.924652124954962,-8.18189509466371,5.2213315224888355,0.09435049649120825,1.158563761107747,0.8948929061160034,0.032675139034941014,0.3558825289940076,0.9584543725365301
Run,1,666.2358505574381,20.787914366458512,-11939.796948322146,-3.7672061017970377,-8.222439079072139,5.210170313258947,0.20908669005458036,1.08510562574272,1.2108975650237945,0.15767416123126884,0.608626988010944,0.7849486189164995
Run,1,-666.1035171092459,-16.281391976885622,11921.241049461443,0.95223015406765,-3.7058124794734884,0.13711228435483153,0.1598780430067468,0.9163851660551325,0.9739884954835215,0.1369969627506467,0.41548894221527877,0.9330293495857309
Run,1,-665.9541901353822,-16.308229357063507,11921.086083378705,0.8151992968854688,-3.75966222357194,0.12973476360601888,-0.033889105999658255,1.0503794141265161,1.0205821639413561,0.18850434050668646,0.5676420497335838,0.8079406910132105
Run,1,-665.9600745450996,-16.04663321701961,11921.116678202317,0.8579142604863655,-3.651464123024682,0.14272295266684107,0.021335783240009294,1.1348701551702502,0.8544971511050912,0.23499439007733913,0.5100809967357236,0.8890234102885751
Run,1,-8.920215362752698,6.454227548059303,61.88116103371249,1.619964262292095,-4.817730681653456,1.0786780127884334,0.09233543813967789,1.0201478011845342,1.0990250450346841,0.4483068023323019,0.6069453380887802,0.6751365790288134
Run,1,-9.178166090409512,6.411757047596055,61.861194558386586,1.4304038872505234,-4.597097320540524,1.2776600645196756,-0.029222591483601044,1.2476233401311625,0.9319821135951722,0.3624550287398358,0.6609342194893728,0.9254263468097614
Run,1,-10.725332018236578,-11.162007197588956,-53.13016952607864,0.9783109500789868,-2.356676765424017,0.9961893425228345,0.05414930315923293,1.0971102860028006,0.7221101740841097,0.2730802607732412,0.6911728119213315,0.9936060787773969
Run,1,-10.775478833375962,-11.215331833799558,-53.11733936274298,1.2372705751704627,-2.1834059269537387,1.0225792953328043,-0.0008561318529415329,0.9340863211196372,0.8538176618923845,0.3945454808386336,0.6481663447954151,0.8285169111311074
Run,1,-9.566610106756086,-5.195195102263615,0.23204310489912114,1.0992100239782927,-1.0171798305680406,1.4873544272664798,0.16486259458798344,1.0766315030651257,0.9597974638243453,0.43264454585645706,0.5462609781190051,0.8814590135283403
Run,1,-9.425563746572971,-5.334153353477551,0.013037272118671686,1.127871447817006,-0.8508175061067599,1.7365003291809242,-0.10659177856410944,1.1461856780538473,0.9247317444954951,0.24385803700407818,0.4156951082814916,0.868454211385558
Run,1,-9.329686285853045,-5.265919044366405,0.1552660780866648,1.038605653019686,-1.0880133716641502,1.5038755938165598,0.011908925935680981,1.2577764319919935,0.6782886978464013,0.3736363950932715,0.6007264346652583,0.724698062499499
Run,1,-3.4114542120516096,-12.718568003849027,58.65414297944988,1.8045780341029278,-2.1424778278412067,1.713031380513693,-0.23334856926230524,1.1364113161117662,0.7683675039613078,0.48310493670225013,0.5355763425327291,0.6181787731628128
Run,1,-3.692819568304431,-12.72918720460746,58.61276379921698,1.8308731708861539,-2.367218180125758,1.8118839971773133,-0.10519356113729046,1.056876981423542,0.8306783331130302,0.24651282849840328,0.6553808273517933,0.7725151608283474
Run,1,8.318543294395496,-0.36778973030905915,-73.64920579131002,0.9524902049571586,-1.3645421968842035,0.8305402651512878,-0.02231842516070797,0.955948250415098,1.030660759014367,0.5316223944903036,0.6811310522588351,0.6386773786005165
Run,1,8.521357213239197,-0.5241612995866202,-73.73266514233237,0.9532809923081538,-1.4848427733595422,0.7590054827718816,-0.014392969251075562,0.97123557885199,1.0186225024499467,0.453000825475902,0.6955000481490968,0.8591016631474442
Run,1,8.53966367085874,-0.5036825462561081,-73.72124694718315,1.1143599272197395,-1.3844262913463148,0.673908743531479,0.014585149854044247,1.0375429153906974,0.8591542762139754,0.4438142658226839,0.5585697923545755,0.6978335200110867
Run,1,-7.4125034236186815,-18.097708250392085,65.45201776556878,1.602255635430676,-2.21614037298627,0.2316854395980394,-0.008359765706329693,1.0789206547838517,0.9321118039022988,0.5172334356857184,0.6096204298316695,0.5359149197814402
Run,1,-7.415048521651,-17.626779088572874,65.39349144688637,1.5258467234909379,-2.0265238694549343,0.06078087183468917,-0.009265722259581489,0.8465261142730162,0.8512562145970098,0.5912629490146786,0.6758935116888348,0.6791295745338916
Run,1,-0.11656541461836353,4.376459635696944,-61.719703960169014,0.6753457931677971,-0.6790306064594921,0.1041388818608201,0.0925143779701415,0.9531612754846508,0.8275387427515525,0.40909777085365534,0.6458883020840892,0.634126935535763
Run,1,-0.2670708077188421,4.301643606508564,-61.661523800024334,0.5793119648460269,-0.8209481261355499,-0.022740060861421343,0.06467719676093642,0.8827230101522474,0.8507334451978912,0.46357440508704273,0.5830736509090395,0.48393097225782794
Run,1,-6.7149096615215615,-5.796852908327638,-15.106841021702968,0.224833270416272,0.15116539048913635,0.0425326057015422,-0.03097144552871315,0.9712174512584817,0.8567240145705375,0.4494458532947394,0.6862114010171593,0.6893992932937202
Run,1,-6.928111998329873,-5.681582312563048,-15.068706128302475,0.015663872192165876,0.03248962016022977,-0.024316553361082086,0.15051689069263832,1.0667150257926687,1.1388258318759197,0.46659065437864544,0.6297507505758867,0.7493597388355749
Run,1,-6.715901593361517,-5.9287826430571515,-15.1845060198393,0.04734310749586183,0.14968950321736735,0.028121025463452298,-0.09846278338227125,1.0832664484940124,0.9033567456629157,0.41445426155052745,0.6713285745509653,0.7945517453289385
Run,1,-20.30658221160933,-13.83701531576016,20.302890443262203,-0.06153860264683609,1.9028190199887642,0.12496135655660441,-0.0078086866827826685,1.0441852388756256,0.8642793988632622,0.32742314678722634,0.7400620212101833,0.8040800214187366
Run,1,-20.138249693880855,-13.821957423325378,20.183354915487676,-0.30757030116597944,1.8714401852692153,0.4890186694144544,-0.028882932883073347,0.8272395950165254,1.0835235736233477,0.43454624161871425,0.6982071811104851,0.8472225830175507
Run,1,7.277217020456858,11.99984117674706,-35.30272723951832,-0.16815126455156743,1.979072842027769,0.18053657903842824,0.0008125590908011227,1.0335317462308242,0.783363428854803,0.3977088053496692,0.7666028515979212,0.8529592030054489
Run,1,7.421372646295922,12.018743459157767,-35.35126273478413,-0.0786116597315421,2.1636823729128736,0.39675521161828925,0.05878256322305081,1.004359846862092,1.019512632641004,0.3678910320770429,0.7855019848899735,0.8247044936026905
Run,1,7.384330458858409,11.988649275056353,-35.08486265100739,-0.32644901863974984,2.0687738393178905,0.45113539713218337,-0.02648368622573779,0.9036203078312603,0.9848194151710017,0.420274400368818,0.7453608531836446,0.8435017296989621
Run,1,-20.86085508979564,9.279339492514428,30.738109523213016,0.23049768750550612,2.8860923022910026,1.7923574505468816,0.004771168655312942,0.8811229278000847,0.8741946892575088,0.5357261641985721,0.6311464197883737,0.9626851671507443
Run,1,-20.944309581737798,9.142882515568406,30.58973759524219,0.19453207852021556,2.9207145332468074,1.898325052128536,-0.14084249883100075,1.0326337407476216,0.8493586745486154,0.37136284136086495,0.7167725590058736,0.6497890907091551
Run,1,18.166864834029568,10.545500119177326,-20.65946566874318,0.5171258028517909,1.516520081837387,1.2349958786808792,-0.19534874171213826,0.8544620804655343,0.8251879300419442,0.3084941986631078,0.760836262311389,0.5736016777424912
Run,1,18.091408663318617,10.917599776846355,-20.46303550813484,0.6271207767781894,1.6134208703002109,1.1223038631639595,0.013433392966465257,1.0976073978475749,0.8472686769703437,0.34405136548686527,0.6731229219864164,0.6726234781361219
Run,1,1.2455559661827595,6.76690573773791,10.868483939273885,0.9673764446145545,1.073832776996653,1.0567097914950203,0.026863629329121286,1.109441991493867,0.9005677487817987,0.20630215566824503,0.6650524321804734,0.5870965890920591
Run,1,1.1358279270042635,6.59673764469853,11.01610005785829,0.8432385721228097,0.7221895077378189,1.0852560605283126,-0.06941247222678117,0.9888625063024287,0.8877477677980944,0.3537044614457463,0.6876476378319251,0.7049415179939328
Run,1,1.0971881198992592,6.739742164231074,11.091231750942343,1.063669511099616,0.927978747104766,0.9735865308247811,-0.21385755728762085,0.893508904945072,0.8699175024359105,0.3098764784325971,0.6874821093289222,0.8203771138253577
Run,1,-12.241979661684578,3.167693850286147,36.95785171825433,1.5479693223593405,0.3623979528660058,0.363896124401465,-0.09700489765916051,0.9451722132917395,0.7588239519545665,0.3526288623331907,0.7542492460656236,0.7597644627047386
Run,1,-12.037945092275548,2.941900114430444,37.16681187391058,1.5769174862780257,0.5834654151809353,0.43534570964006003,0.010271526075422477,1.0880646791111994,0.9065395474990258,0.4562520087266291,0.6547344328211167,0.5862741694874604
Run,1,16.086709161634822,0.7389248886395691,-30.363378311598556,1.1560121548302067,0.009328094436989245,-0.39272136761903625,-0.02886570352970676,0.9493159609618896,0.6339255213181115,0.4263779222627855,0.7599360936031124,0.7461143689863942
Run,1,16.0837247303408,0.622470944048659,-30.346121148567594,0.9979788639551265,-0.16728237623724304,-0.3549648210622156,-0.10510673095148464,1.0940619667404623,0.9403560791594935,0.4071497679481283,0.8015794050504188,0.7680572789047634
Run,1,15.826745411474173,0.49218250355755366,-30.209441708182315,1.3287879045511117,-0.11113339775568867,-0.21388196212090793,-0.007733827589802705,1.1230431709438482,1.027755670999042,0.2854345487274458,0.8193779343147486,0.6767415608475158
Run,1,-30.46973127464611,11.820702932829967,40.22618860866529,1.033051754091024,-0.2556005635446905,-0.6267440141208379,0.025239403934474623,0.965730480249484,0.8861713343015488,0.22361707303256428,0.5824765928870986,0.5457623586339622
Run,1,-30.571904946197655,11.894910730662701,40.189990865450966,0.896582847695996,-0.18746725981072293,-0.6824155889342742,0.007131017171461966,1.0111907211206894,0.9344531435042771,0.2938839437934222,0.5875654954358871,0.8048997777244739
Run,1,16.021408942266262,-1.3174099787241345,-38.45320235676702,0.6658750200758398,0.030388412383288987,-0.19546555738361543,-0.2001372147777378,1.1547500764698413,0.8770908778626791,0.3458371771264699,0.7310509185335027,0.6787592500710495
Run,1,15.989162857250946,-1.3540812390042753,-38.40659341347623,0.9090928988946168,-0.022875927974595048,-0.09318211848915678,-0.08289179697138029,0.9785844292416518,0.7911629535106824,0.44562828283588096,0.7012703959124956,0.678238333569171
Run,1,-4.797138440086455,4.750234133602209,0.2546869790413631,0.651551519515521,-0.033725666177814,0.05037924702988575,-0.07240293628865505,1.1004692773678315,0.994706961880178,0.32158244207752296,0.658701229744123,0.6165315837515994
Run,1,-4.8880179261223855,4.736760387550068,0.11430967222577866,0.5085051789967348,0.2536598158849796,0.163622329479773,0.0811686231998898,1.1245900337544967,0.9591654390272416,0.33731523411431164,0.7940286155697336,0.7095074853590754
Run,1,-4.857501072273028,4.766425482350572,0.32023694072769116,0.4708482477158663,0.11031164178496564,0.16413583926585773,-0.04471015004468469,0.9328076941738258,0.8677617483669205,0.3155551405694687,0.7702551095561858,0.6928913308784606
Run,1,-30.385343703692186,10.804654906479048,42.51673301099956,0.2796118864865804,0.3276162272609876,-0.045854174264723255,0.0020176365592285625,1.1191780158921418,0.9788872183161641,0.5296126290268581,0.7278076084094531,0.8642711613854163
Run,1,-30.385801170612027,10.826504373661965,42.2992765485924,0.3231008024302787,0.14775948215632737,0.1631257133390302,0.09396130670992545,0.9397123875547475,0.9503962487761982,0.2709677462170859,0.8505345638216055,0.4194921253538332
Run,1,24.0486636552317,-7.45382143834481,-44.88618349678924,-0.18210495052065373,0.13721752098592094,0.023833590885983302,-0.173721006261235,0.9246795895201155,0.8846229927407049,0.41659492949976706,0.7701212881183899,0.6718889425508058
Run,1,23.95983764441506,-7.251504457662375,-44.80193368511279,-0.1742887248871155,0.0760685784105749,0.18097303826042277,-0.15854478261643964,1.2234905948786425,0.8908755630570662,0.49626353267119894,0.8226014046073089,0.5909692398051554
Run,1,24.185493428744877,-7.469246101819219,-44.72027174512994,-0.016040008297885808,0.16200706253325664,0.14883806295634247,-0.04957076574959326,0.8761832310238056,0.8607076980765679,0.20483679793110798,0.8238421230833869,0.6693670973672287
Run,1,-40.75551342516368,10.3695873143191,41.4145749103746,-1.2780060239032107,0.6364166967621717,0.16182898914856056,0.01869961653603261,0.7852049551316985,0.991827889195464,0.3499462378214123,0.8408860560384583,0.6828675419004886
Run,1,-40.829323591672306,10.464888867422687,41.42787669974993,-1.4398566074720924,0.7621577399000887,-0.09421792248578048,-0.006444565222353808,1.0771422630164444,0.9528263382473606,0.24207023362523827,0.6779534065001672,0.45505464687910246
Run,1,32.5582835867938,-12.510301666530856,-48.30175697730751,-1.126464351298962,0.5237496236599828,-0.06378067258324908,-0.11517343097035745,0.9813427625285468,0.999285133545166,0.32606932812518497,0.8370693388970619,0.6869910695604641
Run,1,32.575457076613944,-12.372720437228336,-48.241248867322106,-1.3733310009932171,0.4283208696199702,-0.32435369018731186,0.04272794484613341,0.892813514378576,1.0327923981715068,0.21831359414447427,0.6589942878505258,0.76668764314915
Run,1,-6.776909479333297,-2.985311948044943,1.9710875016439804,-1.7945552591286709,0.836977289776405,-0.43893599132712907,-0.05590507657251873,0.9977009425389798,1.0565658506606557,0.185667730309422,0.754359942343032,0.7363853580848254
Run,1,-6.749590056234635,-3.220266468196288,2.151669070212632,-1.6832148091497925,0.9663728854240774,-0.43191474254669315,-0.14018515686274374,1.0545879270690168,1.1230124581709973,0.37619576520736764,0.6510291629232097,0.6033187847544838
Run,1,-6.836689464488887,-3.1036501584579597,2.1110256414642397,-1.706568378307133,0.9735397686801494,-0.40589659295320163,-0.18425778133297777,1.0737042805833679,0.9397721418995243,0.2848023952365562,0.5854206577077765,0.8244601297722605
Run,1,-30.982235405795176,-9.48981419641971,37.691919929070814,-3.316060527310748,1.3742889142539838,-0.9367225184400926,-0.11035246469832238,0.8379268158304336,0.9744739920602978,0.23507528563597077,0.5379827752231414,0.6916157689170918
Run,1,-31.0196786217466,-9.440875532439017,37.91538673377502,-3.4501022470236733,1.1115598992016582,-1.0106015316510937,-0.12973768370990527,0.9235706002338867,0.8180702492419374,0.22070163208017934,0.5839206307310766,0.9178262037189758
